acc_x,acc_y,angular_z,stamp
-0.022190630435943604,-0.003606557846069336,-3.0457127443835505e-06,1791554427380703598
-0.0022642016410827637,0.001368701457977295,-3.2608786738306357e-10,1791554427422707774
-0.005863547325134277,-0.018280744552612305,-2.9310301329055913e-10,1791554427450819327
-0.01813662052154541,-0.011213302612304688,-2.0282523048033756e-10,1791554427480853897
-0.0033915042877197266,0.002989828586578369,-9.47250376815989e-11,1791554427510919953
0.03447598218917847,-0.005870401859283447,-9.015886051696738e-12,1791554427540138230
-0.005165517330169678,0.0027921199798583984,1.9818921055634765e-06,1791554427601037730
0.0021551847457885742,0.0005943775177001953,-5.308159807393244e-12,1791554427632603018
0.007513523101806641,0.009759902954101562,-3.0006713357331676e-12,1791554427663743407
0.0056536197662353516,-0.002963840961456299,4.989523388407339e-13,1791554427691042488
0.008988022804260254,0.0039441585540771484,-8.524773171567654e-11,1791554427721131205
-0.039694905281066895,-0.0032326579093933105,-2.0967643954855176e-10,1791554427751227038
-0.014489948749542236,-0.0013908743858337402,-1.8123734082920591e-10,1791554427781318507
0.01978480815887451,0.0035687685012817383,-1.4578452884768344e-10,1791554427811215504
-0.00012505054473876953,-0.001744389533996582,-1.970147994894197e-06,1791554427841471899
-0.0053438544273376465,-0.003992974758148193,-6.50681817291767e-05,1791554427872614552
-0.04050964117050171,0.004637539386749268,0.0007139241012753549,1791554427904258011
-0.014814138412475586,0.016717135906219482,0.0014104650339376613,1791554427931684050
0.012971043586730957,0.020221412181854248,-0.0005121063914887466,1791554427961365294
0.2783240079879761,0.06057572364807129,0.0050222394653635875,1791554427991403903
-0.1823805570602417,0.17241346836090088,0.037958612567406645,1791554428051463416
-0.11419689655303955,-0.13851529359817505,0.05286736609005803,1791554428081533305
-0.27935993671417236,-0.08144330978393555,0.031532420033232055,1791554428112536040
0.1791670322418213,0.1375114917755127,0.007386391359312874,1791554428145068212
-0.20409101247787476,-0.19067084789276123,-0.017753317639743176,1791554428171761129
0.40106481313705444,-0.025522291660308838,-0.047651213184080096,1791554428201615419
-0.08019256591796875,0.09848630428314209,-0.024837366759114864,1791554428231656278
0.30468612909317017,0.11662238836288452,0.0013643877692801046,1791554428261793507
-0.2520008087158203,-0.057744622230529785,0.00628876638228048,1791554428291762766
-0.014695525169372559,-0.02834397554397583,0.014856438330616034,1791554428321772751
-0.40399861335754395,0.018201172351837158,0.006801787419897044,1791554428353284400
0.3795984387397766,0.03273802995681763,0.008526480278314515,1791554428384784129
0.3342090845108032,-0.20388811826705933,-0.0014790681512099801,1791554428432702086
-0.2893369197845459,-0.0947454571723938,0.008022205207458503,1791554428464048319
0.2545952796936035,0.309004545211792,0.011262374769615563,1791554428491102631
-0.31577110290527344,-0.0387272834777832,0.016945624079689695,1791554428520990654
0.1583675742149353,-0.135384202003479,-0.003480294398322575,1791554428552062411
-0.2080751657485962,-0.061898231506347656,-0.021759306680965287,1791554428582076647
0.34271371364593506,0.04538851976394653,-0.016669951779650537,1791554428612078963
-0.16464358568191528,-0.00546187162399292,-0.012614030381324526,1791554428642135725
0.03664201498031616,0.09025013446807861,-0.022331298956319953,1791554428673132804
-0.11651808023452759,-0.024930119514465332,-0.019155451737814282,1791554428704646439
0.14801663160324097,0.0640457272529602,0.005316709011209266,1791554428732297207
-0.28139132261276245,-0.01374727487564087,0.027232826089913027,1791554428762315117
0.46752190589904785,0.008938908576965332,0.00506008539394863,1791554428792306459
-0.08178848028182983,-0.10188174247741699,-0.005305109016474674,1791554428822391381
0.03953051567077637,0.0630345344543457,0.007223965231796884,1791554428852434853
0.17566806077957153,0.03585028648376465,0.008585287810296447,1791554428882413102
-0.17207109928131104,0.014376282691955566,-0.012047173916304608,1791554428912959251
0.10038048028945923,-0.16510289907455444,0.0015326726031656122,1791554428944888202
0.05132925510406494,-0.08785873651504517,0.0043136271573942135,1791554428972577997
0.11398100852966309,0.05209439992904663,-0.015432340547837797,1791554429002638077
-0.18726050853729248,0.10772508382797241,-0.003911562749936589,1791554429032551039
0.0955810546875,0.046426594257354736,0.004507776798991049,1791554429062605686
0.25653308629989624,-0.04842191934585571,0.012670207105487934,1791554429092619537
0.07954829931259155,-0.07404255867004395,0.010644966221609308,1791554429122671895
-0.14998877048492432,0.004384338855743408,-0.010169636202638938,1791554429153091308
0.0006351470947265625,-0.020057976245880127,-0.005644416965359001,1791554429185097874
-0.010416030883789062,0.010270893573760986,-0.023202751797615984,1791554429212925914
0.1248350739479065,0.005652368068695068,-0.011957302625544657,1791554429242829203
0.061737239360809326,0.047785282135009766,0.012378427942117284,1791554429272858573
-0.007472991943359375,0.030489981174468994,0.010457430954509071,1791554429302005750
0.1494065523147583,-0.0005035400390625,-0.0003017348778084842,1791554429332020929
0.04998433589935303,-0.008092045783996582,-0.02691484373330254,1791554429361989906
0.08821487426757812,-0.11231875419616699,-0.008311269939324437,1791554429392172725
0.019685685634613037,0.031542837619781494,-0.016068336432745748,1791554429424628109
-0.21995019912719727,0.07807081937789917,0.003332851708051598,1791554429455406277
0.1303507685661316,0.13423526287078857,0.013750194010336957,1791554429483150184
-0.002590656280517578,-0.06554454565048218,-0.009466362569959334,1791554429573233151
0.030143558979034424,0.007176637649536133,-0.01329959325372687,1791554429603403577
0.012925148010253906,0.15187668800354004,-0.0054991315648478855,1791554429633372581
-0.24038267135620117,-0.06499922275543213,0.020918095985700394,1791554429664778030
0.10874295234680176,0.08406084775924683,0.0066008977821043315,1791554429696463472
0.13069385290145874,-0.06898069381713867,-0.008047726887887983,1791554429733706215
-0.049316227436065674,-0.09226268529891968,-0.0001885768598759548,1791554429763510435
0.22449588775634766,0.09913063049316406,0.00793206495067071,1791554429793509801
-0.2475096583366394,0.03301793336868286,0.012125917710415827,1791554429824784832
0.06804090738296509,0.0028142333030700684,-0.007424588615908888,1791554429856836181
0.3509029746055603,-0.14052170515060425,-0.011935978538175929,1791554429884241110
-0.024956345558166504,-0.20568466186523438,0.0013749410281320856,1791554429914299388
0.019380927085876465,0.1437632441520691,0.01219904826408472,1791554429943328105
-0.20569735765457153,0.21318328380584717,0.013975378230488871,1791554429974301377
-0.0793944001197815,0.021865665912628174,-0.015221806621121457,1791554430003348407
0.040577232837677,-0.07241582870483398,-0.03227035478132613,1791554430033339258
0.10604017972946167,-0.12594562768936157,-0.005498235940836524,1791554430064333113
-0.12097543478012085,0.13350147008895874,0.004750409407713356,1791554430096896209
0.3135489821434021,0.323003351688385,-0.0015145398861668006,1791554430124407014
0.14317595958709717,-0.09788066148757935,-0.005600323900045936,1791554430155284374
0.18684875965118408,-0.34151726961135864,-0.0030678155508813126,1791554430194366658
-0.22420841455459595,0.13908427953720093,0.00419413877097835,1791554430224685736
-0.06706643104553223,0.4343687891960144,-0.014267618500134263,1791554430257593047
-0.1332651972770691,-0.06183171272277832,-0.06452864343026593,1791554430284505817
0.036039769649505615,-0.4263034462928772,-0.051382854003955696,1791554430314426382
-0.40187978744506836,0.048235535621643066,-0.0015975500774474455,1791554430344517367
0.05992317199707031,0.31772297620773315,0.0338934543122955,1791554430374727887
0.0810050368309021,-0.09157103300094604,0.019594982952268174,1791554430404776392
0.11668097972869873,-0.497678279876709,-0.0019623960363744446,1791554430434540037
0.20821714401245117,0.025307953357696533,0.003599130530137024,1791554430464732199
0.328391969203949,0.46253031492233276,-0.00423157997720462,1791554430497270031
0.12658756971359253,0.03850531578063965,-0.015341223105570106,1791554430524919408
-0.22165518999099731,-0.282262921333313,-0.0009068690453093056,1791554430564601219
-0.07397091388702393,0.1065373420715332,-0.007113765394372083,1791554430594583236
-0.126875102519989,0.38760536909103394,-0.008049559524074967,1791554430625232812
-0.09058177471160889,-0.29216569662094116,-0.013170095317086563,1791554430656865585
0.11215835809707642,-0.17531579732894897,-0.009988348694545141,1791554430684644606
-0.010639309883117676,0.41592133045196533,-0.006380603800907728,1791554430714527605
0.06553947925567627,0.046294450759887695,-0.015585498063473298,1791554430744583863
0.23707997798919678,-0.3996906280517578,0.0013043175684287996,1791554430774602326
0.22511166334152222,0.010403037071228027,0.012303710453613151,1791554430804646666
0.020793497562408447,0.3746730089187622,0.002915977695605824,1791554430834752678
-0.2574876546859741,-0.2657288908958435,-0.010966480187866449,1791554430865298016
0.10399270057678223,-0.010644257068634033,0.0103504150447251,1791554430896990898
-0.022711217403411865,-0.13687926530838013,0.021100766759157646,1791554430945655970
0.13372689485549927,-0.14494401216506958,-0.020629609966927174,1791554430977495522
0.03852719068527222,0.21598023176193237,0.00021389145779413159,1791554431007010820
-0.18044203519821167,-0.11250710487365723,-0.00025219593329934035,1791554431045054313
0.3527916669845581,-0.05703848600387573,0.00037870614578639937,1791554431074989700
0.030488908290863037,0.18221336603164673,0.0012738027003029125,1791554431105169392
0.25033068656921387,-0.05845010280609131,-0.01592808402083812,1791554431137448465
-0.2921310067176819,-0.10131102800369263,-0.0004654521407478059,1791554431167662676
0.04999184608459473,-0.01318448781967163,0.010485399397492908,1791554431204129766
-0.2865073084831238,-0.12746238708496094,0.0020756600686494143,1791554431235148965
0.17901611328125,0.2705376148223877,-0.004295211436413322,1791554431275549310
-0.030694007873535156,-0.3546413779258728,-0.01070053841786441,1791554431315192961
0.25367188453674316,-0.2077111005783081,-0.004292766769553162,1791554431345299967
0.05970495939254761,0.2921122908592224,-0.004527355372769503,1791554431377276324
-0.24343794584274292,0.08952450752258301,-0.03309027415188726,1791554431407161244
0.17142754793167114,0.11011397838592529,-0.00935446251792996,1791554431435410600
-0.10044372081756592,-0.3633466958999634,0.007054677835356182,1791554431465419845
-0.062077343463897705,0.03834646940231323,-0.016464418235103407,1791554431495489571
0.18210649490356445,0.27245283126831055,0.029865198118742668,1791554431525475817
-0.2493666410446167,-0.11400783061981201,0.0038179661106844827,1791554431555613787
0.15974950790405273,-0.22081273794174194,-0.01899281337612331,1791554431585588284
0.21385926008224487,0.16587752103805542,-0.007138280239240973,1791554431616965921
-0.35176223516464233,-0.08956456184387207,-0.04361216854916599,1791554431635834230
0.065621018409729,0.04466378688812256,0.0019225205839752339,1791554431675722809
-0.3027530312538147,-0.11185038089752197,-0.004198116064883945,1791554431705681452
0.2074621319770813,0.0292128324508667,-0.013957131419578793,1791554431735724415
-0.04093003273010254,0.08396357297897339,0.011248313076836016,1791554431765837526
0.11862975358963013,0.048086345195770264,0.0064987618247909044,1791554431795794871
0.048773229122161865,-0.0036028027534484863,0.025087418991036867,1791554431825858729
-0.2757335305213928,-0.15449559688568115,-0.021653970511869583,1791554431857237225
0.5277073383331299,-0.08772742748260498,0.007479355841799833,1791554431889193588
-0.03579258918762207,0.026747703552246094,0.013761814015280645,1791554431916300941
-0.05527758598327637,0.020742416381835938,-0.02382991209788519,1791554431945982937
0.012944340705871582,0.06969797611236572,-0.0019250278838760162,1791554431976017706
-0.08693557977676392,-0.011015057563781738,-0.0016398154637284664,1791554432006066604
0.20766407251358032,0.08940142393112183,-0.009089106428765637,1791554432036087803
-0.27302342653274536,-0.0800214409828186,-0.020633124792948435,1791554432066138437
0.14122378826141357,-0.06543654203414917,-0.010709184862252582,1791554432098315888
-0.11518067121505737,-0.2740076184272766,0.005487676564872004,1791554432129561593
0.04606825113296509,0.052726805210113525,-0.012662409714137473,1791554432166292399
-0.037250399589538574,-0.24612438678741455,-0.014303517960490899,1791554432196320993
-0.13466596603393555,0.09356111288070679,-0.005822041118644079,1791554432225339744
-0.0021548867225646973,-0.03178936243057251,-0.0022095728820753376,1791554432257047081
0.011515378952026367,0.008751630783081055,-0.02034390636645526,1791554432288346266
-0.09935766458511353,0.0915536880493164,-0.0008141067875197934,1791554432316556264
-0.18555551767349243,-0.01915210485458374,-0.011183382981350404,1791554432346476426
0.0009119510650634766,0.0837523341178894,-0.0031502070996202126,1791554432376502068
-0.17837846279144287,-0.11354029178619385,-0.012657176717064648,1791554432406800641
0.44533026218414307,0.0018140077590942383,0.009895463369079868,1791554432436704525
0.13046377897262573,0.2111019492149353,-0.0006913833234122267,1791554432466598982
-0.1887524127960205,-0.06863915920257568,-0.013433453728288879,1791554432529206929
0.17765802145004272,0.04164016246795654,0.004696665160304875,1791554432556729035
-0.26134276390075684,0.0782855749130249,-0.009880903692253135,1791554432586989844
0.566822350025177,-0.11108583211898804,0.005403174489024151,1791554432626758540
-0.47353804111480713,0.20587801933288574,-0.01200942665559418,1791554432657127542
0.3886426091194153,-0.008946597576141357,-0.00047473094012255877,1791554432689152185
-0.7544122934341431,-0.089851975440979,-0.0019503165974498109,1791554432719036023
0.7850278615951538,0.21724283695220947,0.01628335013353365,1791554432747141009
-0.72137051820755,0.10870665311813354,0.0013097280463635252,1791554432776952725
0.8061814308166504,-0.04350084066390991,-0.0037500092682977563,1791554432806986888
-0.644126296043396,0.018150389194488525,-0.021668588446455743,1791554432837013591
0.6408124566078186,0.09302866458892822,-0.00943862999024855,1791554432867050791
-0.6079137325286865,-0.1389290690422058,-0.005877227434684585,1791554432897060683
0.8249421119689941,0.22243505716323853,-0.00908236532636281,1791554432929409475
0.024860501289367676,-0.23212122917175293,-0.02733096030491837,1791554432959284652
-0.06662184000015259,-0.04471677541732788,0.015315482710820573,1791554432987227139
-0.1309637427330017,-0.08295869827270508,-0.006676282847125677,1791554433017260673
0.25884366035461426,0.16936415433883667,0.002929937427833084,1791554433039862063
-0.01301729679107666,-0.11029559373855591,0.003655247178700436,1791554433067451582
0.23303908109664917,-0.2269020676612854,-6.913404473325785e-05,1791554433096351062
0.025676250457763672,-0.031064987182617188,-0.014976572899583759,1791554433127396506
-0.029208838939666748,0.10142892599105835,0.005779824746233449,1791554433157435236
-0.008050918579101562,0.034967780113220215,0.003041592315843371,1791554433187450888
0.0016084909439086914,-0.18504083156585693,-0.006955441900490774,1791554433217484001
-0.02130037546157837,0.14074504375457764,-0.031730604409845584,1791554433249374096
-0.07720792293548584,0.09382301568984985,-0.023231664342188138,1791554433281176075
-0.1809980273246765,-0.11627894639968872,0.008821260993773922,1791554433308075231
-0.03116363286972046,-0.24772512912750244,0.011904095681835956,1791554433337799516
0.4483908414840698,0.33071136474609375,0.013175087521081996,1791554433367637159
-0.1612534523010254,0.005946338176727295,-0.0012579847866227554,1791554433397700186
-0.107638418674469,-0.10994088649749756,-0.017898115740426553,1791554433427700919
-0.11789393424987793,0.029200255870819092,-0.018670912974518037,1791554433457933541
-0.02569580078125,-0.09912663698196411,-0.02183226052624463,1791554433489099039
-0.007862746715545654,0.17974859476089478,-0.0211611333614913,1791554433521119083
-0.06506097316741943,-0.15335118770599365,-0.006873393897612881,1791554433548223998
0.10961657762527466,0.06752312183380127,0.008091750916191446,1791554433578807994
-0.06742292642593384,0.17101037502288818,-0.0004226056299095761,1791554433618035592
-0.050973474979400635,-0.1399977207183838,-0.030350358257359863,1791554433648342452
-0.06460452079772949,-0.12555056810379028,-0.00658121580116667,1791554433681206007
0.06650519371032715,-0.04755514860153198,0.00667507043654628,1791554433718838598
0.22792834043502808,-0.01703929901123047,-0.00020503003814488426,1791554433748072668
-0.000922083854675293,-0.15046626329421997,0.03405001306890154,1791554433778292532
0.06280386447906494,-0.07854282855987549,0.0004175990797106908,1791554433808996470
-0.2912871837615967,0.07986468076705933,-0.016967282210491562,1791554433841136592
0.101185142993927,-0.10689693689346313,-0.021007744045300716,1791554433868594210
-0.28377366065979004,0.0023131966590881348,0.005865105349620054,1791554433898282189
0.19933146238327026,0.18177402019500732,-0.0038391939569937744,1791554433928295876
-0.46487146615982056,-0.026873886585235596,0.0024029765514821293,1791554433958533540
0.5517714619636536,-0.05420088768005371,0.0168803010713955,1791554433988543954
-0.5209847092628479,-0.134060800075531,-0.003697721799989591,1791554434018540065
0.48361736536026,0.23202991485595703,-0.02434641566935064,1791554434049306341
0.2625510096549988,-0.21396350860595703,0.005062234333789668,1791554434108604235
-0.23719823360443115,0.09080886840820312,-0.006940696341226523,1791554434138747172
-0.06300079822540283,0.17554408311843872,0.002993060371479259,1791554434168573086
0.3020135164260864,-0.23009252548217773,0.012907836989558247,1791554434198655420
-0.47408998012542725,-0.06165921688079834,-0.021530286068059627,1791554434228703013
0.419178307056427,0.08133286237716675,-0.0015763099701019566,1791554434258789946
-0.5981109738349915,-0.030179619789123535,0.004748530322695295,1791554434289276668
0.5541896820068359,0.06986045837402344,-0.010881581467142763,1791554434321055141
-0.405623197555542,-0.04195833206176758,-0.006746897573277259,1791554434349226047
0.2749643325805664,-0.008910298347473145,-0.020424598271371282,1791554434379860468
-0.45044100284576416,-0.0057569146156311035,-0.008683850173718692,1791554434409561178
0.3323136568069458,0.10266649723052979,0.015604912988602834,1791554434439607644
-0.27924901247024536,-0.038775861263275146,0.021915827109889676,1791554434469556415
0.4037460684776306,-0.01936107873916626,0.017823706231534286,1791554434499649403
-0.194524347782135,0.03976762294769287,-0.02320473993307662,1791554434579678032
0.29930049180984497,-0.04809659719467163,-0.010539423521816756,1791554434609622229
-0.10873746871948242,0.06463867425918579,-0.008848835829597177,1791554434641078347
0.05812430381774902,-0.1417161226272583,0.004286970171998108,1791554434671587045
0.045382559299468994,-0.023538589477539062,-0.005630953283114005,1791554434699788609
0.22650092840194702,0.05889946222305298,0.00228367353743982,1791554434729586446
-0.23933011293411255,-0.2041071057319641,-0.029567150481300698,1791554434759674913
-0.2679840922355652,0.052473247051239014,-0.014348790252804961,1791554434789625176
0.3217005133628845,0.08919918537139893,0.0009834407670071786,1791554434819661942
-0.15821999311447144,0.07603698968887329,-0.025605382059605948,1791554434850303291
0.4250856041908264,-0.16816717386245728,-0.005914392262819474,1791554434880992224
-0.2904978394508362,-0.08682554960250854,0.012692252729756754,1791554434912452398
0.5288934111595154,0.058086276054382324,0.0005666957997866941,1791554434939740619
-0.8368485569953918,0.015091419219970703,-0.0032964698399751157,1791554434969787447
0.7705608010292053,0.1059313416481018,0.014106440276014202,1791554434999923267
-0.48175591230392456,0.09866714477539062,0.0037775892624909223,1791554435041588998
-0.4035026431083679,0.05006587505340576,-0.007231157256313419,1791554435072280626
-0.139723002910614,-0.25843971967697144,-0.014029558304063501,1791554435100211854
-0.18647456169128418,0.11967670917510986,0.015615396343685159,1791554435129901408
0.028712868690490723,0.17219877243041992,0.0014513244789784302,1791554435159920837
0.23799490928649902,0.020804643630981445,-0.018387358546560206,1791554435180105410
0.3938246965408325,0.02652418613433838,-0.005556411135660924,1791554435220218489
-0.37798255681991577,0.339819073677063,0.002820764685702641,1791554435249920154
0.06680214405059814,-0.015938103199005127,-0.014727209915752059,1791554435281071826
-0.3026682138442993,-0.20248234272003174,-0.012767961512501803,1791554435313004263
0.42826616764068604,0.12423312664031982,-0.006793552738448973,1791554435340078440
-0.43394243717193604,-0.1216576099395752,-0.015759546275621303,1791554435369993437
0.4111056923866272,0.06004065275192261,-0.0034466521106265107,1791554435400023186
-0.26424604654312134,0.09963977336883545,-0.010185120379238922,1791554435430031398
0.2679809331893921,-0.06557261943817139,-0.008879342148339677,1791554435460092320
-0.15224385261535645,-0.04316681623458862,-0.02048194324935876,1791554435490109064
-0.08454197645187378,0.12702399492263794,-0.024851324975279792,1791554435521269217
0.29746586084365845,0.026499927043914795,-0.0037039618015290697,1791554435553653919
-0.2386072278022766,-0.09178149700164795,0.01882234550662491,1791554435580380746
0.09621626138687134,0.05893129110336304,0.013241582017685376,1791554435610456548
-0.09881854057312012,0.03363269567489624,0.013482491234195596,1791554435640323541
-0.13871604204177856,-0.06928384304046631,0.0014464670172549517,1791554435668326682
0.010504066944122314,0.03984791040420532,-0.013858765254066025,1791554435698349962
0.0811539888381958,-0.0625993013381958,-0.01132121991390072,1791554435730625537
0.050085604190826416,0.05177128314971924,-0.0022292032327365483,1791554435761375239
-0.011404931545257568,-0.12612664699554443,0.0060755123937794205,1791554435792941626
0.09831714630126953,0.21671700477600098,0.010683953439716617,1791554435820642930
0.07165002822875977,-0.11704069375991821,0.01877813443961583,1791554435850532198
-0.09862804412841797,-0.03892862796783447,-0.02511628445626706,1791554435880571683
-0.011625468730926514,-0.027436256408691406,-0.0230312905056334,1791554435910639593
0.33885836601257324,0.08220541477203369,-0.022036169868490812,1791554435940672087
-0.07467442750930786,-0.06224238872528076,-0.017622738235778933,1791554435970922083
0.2287241816520691,-0.0708497166633606,-0.015276817514479719,1791554436000349259
-0.17199808359146118,-0.12189263105392456,0.011407584719581424,1791554436033062145
0.15733981132507324,-0.03594869375228882,-0.010396743698678365,1791554436060960454
-0.4430444836616516,0.026896238327026367,-0.014087250343498062,1791554436081554489
0.4073931574821472,-0.01607877016067505,-0.010177275898844986,1791554436112333765
-0.3089519739151001,-0.10175156593322754,0.00847233113461202,1791554436141081233
0.25008589029312134,0.08991128206253052,-0.010556715393880952,1791554436170898998
-0.40471071004867554,0.10256952047348022,-0.005686943795175495,1791554436200939151
0.37533146142959595,-0.18546128273010254,0.00133462645573634,1791554436230981015
-0.4647393822669983,-0.12524765729904175,0.005240304465854,1791554436261006020
0.6183662414550781,0.29392004013061523,-0.0051853733311512,1791554436291376804
-0.4831845164299011,-0.15174371004104614,-0.010191806324643653,1791554436321682640
0.3343048691749573,-0.06879818439483643,0.013396190221192688,1791554436353123175
-0.32064491510391235,0.1907973289489746,0.002778769583752807,1791554436383176385
0.286227285861969,0.060193777084350586,0.004838019004492703,1791554436411191488
-0.056758224964141846,-0.13738524913787842,0.011435917414073939,1791554436441213245
0.16337579488754272,-0.08894550800323486,-0.0018994958137958915,1791554436471245645
-0.051338255405426025,-0.08525347709655762,-0.014207470174227896,1791554436501301770
-0.3992024064064026,0.009722590446472168,-0.02157426040447937,1791554436543181574
0.434217631816864,-0.04242253303527832,-0.01099958009015583,1791554436581449611
0.17576974630355835,0.14206677675247192,-0.004997558094582946,1791554436610611083
0.017012357711791992,0.10879755020141602,-0.0038271167779498727,1791554436641774243
0.12886977195739746,-0.20908987522125244,-0.00575470802525689,1791554436691701330
0.3300921320915222,0.46997642517089844,-0.001220693617893581,1791554436721533091
0.10519558191299438,-0.2870861887931824,-0.0063043952679322415,1791554436753461816
0.20004254579544067,-0.11112415790557861,-0.015763801561201496,1791554436784587920
-0.12375771999359131,-0.06879091262817383,0.003251086004726126,1791554436811698334
0.21773695945739746,0.2971509099006653,-0.0005438709200582206,1791554436841664173
-0.3047182559967041,-0.3612613081932068,0.005164304541460036,1791554436871695140
0.19222509860992432,0.12098109722137451,0.003254619851107945,1791554436901753794
-0.20604753494262695,0.1545458436012268,0.01022994059214167,1791554436931924300
0.4723316431045532,-0.08378541469573975,0.01707097908280286,1791554436961837346
-0.16212087869644165,0.1355317234992981,-0.003141354639154119,1791554436993117687
0.0943877100944519,-0.13028031587600708,-0.011676557683342212,1791554437025469217
-0.1737704873085022,-0.04755908250808716,-0.009106347970812766,1791554437052032060
0.20729100704193115,0.15103328227996826,-0.010423861302203477,1791554437081969224
-0.024082303047180176,-0.09297257661819458,-0.017482605485446612,1791554437112101486
-0.1991291046142578,-0.10884487628936768,0.011704097494553584,1791554437142008715
-0.05501198768615723,0.04669719934463501,-0.009844075872908833,1791554437172295310
-0.3192153573036194,0.054439544677734375,-0.013938471438583873,1791554437202067651
0.29847049713134766,-0.37814486026763916,-0.0164867048877665,1791554437233137555
-0.12784409523010254,0.03612428903579712,0.007270568610988878,1791554437265273803
0.10815483331680298,0.21964776515960693,-0.006322793080568588,1791554437292302915
-0.5300695896148682,0.045536696910858154,-0.00855786899992782,1791554437322201988
-0.3071190118789673,-0.23153233528137207,-0.012111376472945561,1791554437346160929
-0.39499861001968384,-0.0011851787567138672,0.005691218189833711,1791554437382312044
0.3712337017059326,0.3009299635887146,-0.009278700323651098,1791554437412566743
-0.5470466613769531,-0.17293262481689453,-0.021838205631984867,1791554437441351477
0.46594351530075073,-0.123340904712677,0.018654193779071352,1791554437473644876
-0.35812681913375854,0.32915228605270386,0.006895745338911183,1791554437503333097
0.18886876106262207,0.06757605075836182,0.0012716941891437006,1791554437531603228
-0.45454275608062744,-0.23539191484451294,0.0034520413823975896,1791554437562523150
0.3698287606239319,0.14679479598999023,0.0047644853464383725,1791554437585721355
0.22250819206237793,0.018504559993743896,-0.012897186689993614,1791554437622939547
-0.2373441457748413,-0.0027903318405151367,-0.002606596084127172,1791554437652874586
0.16952311992645264,0.05051994323730469,-0.00960615298231645,1791554437682683596
-0.24927407503128052,-0.056115686893463135,-0.004519088187906373,1791554437712325739
0.18404620885849,0.002352595329284668,-0.02228136140051016,1791554437745406013
-0.17562979459762573,0.00019031763076782227,-0.023784703911299325,1791554437772770322
0.4506388306617737,0.03228515386581421,-0.0007746773631793493,1791554437803067442
0.21523457765579224,0.33906668424606323,0.0037860434110625982,1791554437842812218
0.1629365086555481,-0.15927547216415405,0.007824803068196683,1791554437873400857
-0.14154595136642456,-0.07317894697189331,-0.011844902242615137,1791554437905102571
0.012810826301574707,-0.06978744268417358,-0.01515555595446769,1791554437932999502
-0.006645619869232178,0.2350088357925415,-0.016926215578845535,1791554437963092390
-0.022449612617492676,-0.22773098945617676,0.004621286210428664,1791554437992981511
0.04668378829956055,0.09718453884124756,0.0016725952353872395,1791554438023038986
-0.029676973819732666,0.007769405841827393,-0.0016164251048315832,1791554438052995730
0.22508996725082397,-0.11445623636245728,0.01873169246475541,1791554438093128225
-0.21986901760101318,-0.11793452501296997,-0.01926489565452222,1791554438133182555
-0.5133198499679565,-0.08683216571807861,-0.011824703967731578,1791554438163286716
0.4540214538574219,0.24132782220840454,-0.001626449439348817,1791554438193191563
-0.360954225063324,0.14497053623199463,-0.011325956592231208,1791554438225147735
0.027318954467773438,-0.15316355228424072,0.009634971863243597,1791554438263299727
-0.15262925624847412,0.014367878437042236,0.00494323628092952,1791554438292392702
-0.025811493396759033,0.005164802074432373,-0.01175959713162261,1791554438322356805
0.04740029573440552,-0.3070419430732727,-0.024914510171666605,1791554438353646130
-0.028938889503479004,-0.09112465381622314,-0.008045241713079623,1791554438385137500
0.13386273384094238,0.17666476964950562,-0.0184224025866592,1791554438416103400
-0.6242048740386963,0.03386443853378296,-0.008716130637402278,1791554438452488179
0.78410404920578,-0.12571680545806885,0.012659001265718131,1791554438483758891
-0.7242165207862854,-0.12907332181930542,0.003773756228767043,1791554438513668639
0.8363655209541321,0.30367690324783325,-0.013391295950097833,1791554438545462190
-0.4017953872680664,-0.19043844938278198,-0.033717582238195,1791554438575948484
0.029330432415008545,-0.06290966272354126,0.005327317206250455,1791554438613678269
-0.14347243309020996,-0.041778564453125,-0.0014005227237481384,1791554438643952188
-0.26095449924468994,-0.05273920297622681,0.0029420020235826315,1791554438673846295
0.39541542530059814,0.0917583703994751,0.01340868762118312,1791554438704366469
-0.43563681840896606,-0.2144021987915039,-0.007742969489128559,1791554438736303356
0.524387001991272,0.0651322603225708,0.015872022598673118,1791554438763877709
-0.04730921983718872,-0.04751342535018921,-0.002809763708547162,1791554438785282919
0.38994884490966797,0.12113070487976074,-0.007586404519051013,1791554438817672585
-0.4709305167198181,-0.040144503116607666,-0.0007250400450471885,1791554438844272777
0.3257593512535095,0.01960080862045288,-0.015881155911592757,1791554438873983754
0.015224277973175049,0.07997375726699829,-0.0016293818558792957,1791554438896370545
0.23357254266738892,0.10004264116287231,0.003351126782636455,1791554438924056440
-0.28592509031295776,-0.18066561222076416,0.0021588464808121534,1791554438954093375
0.23940986394882202,0.36340099573135376,-0.010662513825552113,1791554438977560498
-0.09902870655059814,0.09264993667602539,-0.02252347328206518,1791554439014467163
0.019071102142333984,-0.07779550552368164,-0.00965594544275762,1791554439044428710
0.013378679752349854,0.03736543655395508,-0.013569553163799136,1791554439074219278
0.24098455905914307,0.09002047777175903,-0.006010360193304483,1791554439105488172
-0.04415649175643921,0.018700242042541504,-0.012359122816507008,1791554439137906604
0.07452917098999023,-0.16529059410095215,0.0032431374842289496,1791554439164610978
0.04448574781417847,-0.053611040115356445,0.007276410662468479,1791554439194980447
0.09389811754226685,0.0792320966720581,0.011165831124253659,1791554439224901235
-0.23678261041641235,-0.15456825494766235,-0.024124011215224353,1791554439254859836
-0.021759867668151855,0.002183079719543457,-0.012723774379086868,1791554439274869335
0.3443281650543213,0.1374751329421997,0.012467267937658105,1791554439314888009
-0.4296836256980896,0.09523558616638184,2.6492476676595775e-05,1791554439344324869
0.28852182626724243,-0.1514226794242859,0.004142691806109366,1791554439377551302
-0.2772247791290283,0.09477740526199341,0.005977625020770383,1791554439414898102
0.3027488589286804,0.032359182834625244,-0.0061286201648498686,1791554439445088618
-0.1867506504058838,-0.24296170473098755,-0.008531615216046177,1791554439474690029
0.4476447105407715,-0.06029832363128662,0.01681560561331884,1791554439505186041
-0.3612592816352844,0.11413133144378662,-0.004901077440886742,1791554439537414363
0.20017772912979126,-0.012557625770568848,-0.018040335661019292,1791554439564926670
-0.08529627323150635,-0.23357373476028442,-0.021091355034517614,1791554439594818940
0.20049989223480225,0.19303232431411743,0.0005692224331908954,1791554439624872711
-0.1070064902305603,-0.030244767665863037,-0.01208488534877303,1791554439654895072
0.42808932065963745,0.19692981243133545,-0.02576234965803967,1791554439674952617
0.5472516417503357,-0.024562478065490723,-0.006445240991892895,1791554439715017782
-0.36909401416778564,0.20716196298599243,0.003308565135260761,1791554439745315410
0.11404770612716675,0.043899476528167725,-0.008858240769623212,1791554439795115205
0.46624112129211426,0.1340242624282837,-0.010030394049505778,1791554439825206719
-0.34674328565597534,-0.27165788412094116,-0.008213232955396046,1791554439856354886
0.5396347045898438,0.09744948148727417,0.012533144844238973,1791554439885226207
0.3001977801322937,0.010323941707611084,0.0005945151987614747,1791554439937466667
-0.2156807780265808,-0.10452383756637573,0.003011607019263533,1791554439975277778
0.20931029319763184,0.05835235118865967,-0.014607900394176731,1791554440004361768
