acc_x,acc_y,angular_z,stamp
0.006826460361480713,-0.014633774757385254,2.116898156877256e-09,1791554347260677435
0.0011714696884155273,-0.0022895336151123047,2.1887453316682545e-09,1791554347288203172
-0.01509249210357666,0.017639517784118652,1.5548144720434651e-09,1791554347348219999
0.0208357572555542,-0.019993364810943604,1.5477792519815333e-09,1791554347378563259
-0.01164311170578003,-0.0002747774124145508,1.2675474150134702e-09,1791554347408284490
-0.03878307342529297,-0.030190646648406982,-1.984602069620702e-06,1791554347438302580
-0.01880800724029541,7.778406143188477e-05,8.588767689545548e-10,1791554347468922350
0.022651314735412598,-0.006737411022186279,7.586912185741047e-10,1791554347500848644
0.011996924877166748,-0.006779789924621582,8.221746680818044e-10,1791554347528506417
0.010110020637512207,-0.006316184997558594,5.618872823513955e-10,1791554347558493154
-0.018656015396118164,0.008114218711853027,3.9545063249117387e-10,1791554347588574584
-0.007991552352905273,-0.01658552885055542,2.879512507645991e-10,1791554347618534785
0.010517299175262451,0.010641157627105713,8.129316892405127e-11,1791554347648899478
0.044532179832458496,-0.014229893684387207,0.00030514973600323227,1791554347678590260
0.8774127960205078,0.35422283411026,0.06560697188807911,1791554347708638468
1.496740460395813,-0.050523340702056885,0.22810277333417286,1791554347740809523
0.5333353877067566,0.11714988946914673,0.19936655137582562,1791554347770760559
0.4887586236000061,-0.002405703067779541,0.28726336573451833,1791554347798792142
0.5536333322525024,0.11546915769577026,0.3360635821231691,1791554347828725261
0.5955595970153809,0.25474512577056885,0.3944785846389183,1791554347858764965
0.31093382835388184,0.24070900678634644,0.47521839278793826,1791554347888803855
0.8293747901916504,0.06430131196975708,0.5370080388351707,1791554347918805451
0.38872790336608887,0.053717195987701416,0.6103201258066532,1791554347980410621
0.29945826530456543,0.047199130058288574,0.6287044885197033,1791554348011832056
-0.5316295027732849,0.6575685143470764,0.6746066068000497,1791554348039019970
-0.4130058288574219,-0.1810322403907776,0.6282727355144236,1791554348069142778
-0.21824771165847778,-0.3014940023422241,0.6686735584089771,1791554348099041465
0.07587134838104248,0.47343987226486206,0.6601207256660929,1791554348129090826
-0.07911139726638794,0.6580334305763245,0.6550014069455808,1791554348159108582
0.500600278377533,-0.5967060923576355,0.6744075148635569,1791554348188451194
-0.33010417222976685,-0.2134496569633484,0.6096129546938949,1791554348220417664
0.4076728820800781,0.08664137125015259,0.6109278026926837,1791554348251800282
0.14904016256332397,0.6193011403083801,0.7126258957370804,1791554348279271253
-0.09503895044326782,-0.02777087688446045,0.6427400616954067,1791554348309266314
-0.010730981826782227,0.13277584314346313,0.6409927647159215,1791554348370024576
-0.24506789445877075,0.649411678314209,0.6859960216472075,1791554348400056854
-0.10125625133514404,-0.4320666193962097,0.6949709600799142,1791554348429986717
0.20474767684936523,0.5580543875694275,0.621991782796194,1791554348492915411
-0.030456602573394775,0.5048742294311523,0.5763031957585676,1791554348572596328
0.29150569438934326,0.7175785303115845,0.6674111394111826,1791554348609675956
-0.13097184896469116,-0.1806560754776001,0.6348491644920077,1791554348639661176
0.05268603563308716,-0.4259861707687378,0.6512724934187872,1791554348669684769
-0.14136135578155518,0.6744967103004456,0.633341374724395,1791554348700489519
0.30646365880966187,0.3376367688179016,0.6000663377943077,1791554348732681986
-0.11463427543640137,0.290926456451416,0.6723303375265112,1791554348760159882
-0.15194493532180786,-0.3832992911338806,0.623035364046609,1791554348789822069
0.2656260132789612,0.1294877529144287,0.6612524397354727,1791554348819855888
0.16507768630981445,0.7861610054969788,0.6426509653059032,1791554348849896876
-0.533278226852417,-0.1703539490699768,0.6141504492897155,1791554348879923631
-0.22340893745422363,0.15396404266357422,0.6433511632342056,1791554349030112239
0.06235241889953613,0.3187134265899658,0.550365355860824,1791554349053164807
-0.22358864545822144,-0.801224946975708,0.7246108492213287,1791554349080589417
0.1783294677734375,0.2315954566001892,0.6593397389471793,1791554349110192274
-0.19257885217666626,1.0631033182144165,0.6208753699774773,1791554349140226577
0.0722004771232605,-0.49675315618515015,0.6252467968535147,1791554349170252660
0.18866324424743652,-0.2638973593711853,0.6310590803232672,1791554349200284886
0.08215975761413574,0.8347776532173157,0.6159664304170688,1791554349230565856
-0.1367807388305664,0.0004527568817138672,0.6560728865129412,1791554349260588238
-0.003833293914794922,-0.09370589256286621,0.5836219542733433,1791554349293182220
-0.33643919229507446,-0.39598172903060913,0.6726968078604636,1791554349330413129
-0.04784172773361206,-0.44481897354125977,0.6643864007573671,1791554349360475839
0.0156288743019104,0.7473070025444031,0.6376900477371863,1791554349390506152
0.3272843360900879,0.7709307670593262,0.6081937381491891,1791554349420987983
-0.39911675453186035,-0.8444740772247314,0.5981511380912583,1791554349452720869
0.07107478380203247,-0.12949234247207642,0.6731054491525792,1791554349480816279
0.1280542016029358,1.2057058811187744,0.6521147714361388,1791554349510670771
-0.16755861043930054,-0.36523789167404175,0.6215946484858805,1791554349540693654
-0.48155486583709717,-0.735500693321228,0.6001108823756595,1791554349570694249
0.27315038442611694,0.8473218679428101,0.625726683491088,1791554349600748332
0.28219181299209595,0.6396839022636414,0.6299979451992375,1791554349630778134
-0.13268673419952393,-0.6095385551452637,0.6232285086834293,1791554349659853421
-0.20198428630828857,-0.10122203826904297,0.5742738010964411,1791554349692647393
0.36476629972457886,1.0166651010513306,0.6260362616453732,1791554349723085447
-0.18830430507659912,-0.027854859828948975,0.6607257932288679,1791554349750976343
-0.27358007431030273,-0.6942867040634155,0.6215861783482454,1791554349781016479
0.013365209102630615,-0.3875885605812073,0.6173721459545015,1791554349811257827
-0.023901045322418213,0.755394697189331,0.623583575623211,1791554349841051821
0.16306966543197632,0.4839072823524475,0.6391813026947302,1791554349871051027
-0.3820788860321045,-0.8184579610824585,0.6374104935407084,1791554349901098704
0.12455970048904419,0.09564417600631714,0.5661559883644666,1791554349933743907
0.29929298162460327,1.149543046951294,0.6280114969840683,1791554349963361573
-0.017979681491851807,-0.2575293779373169,0.6513358520522656,1791554349991299821
-0.06048053503036499,0.7318628430366516,0.5937845827315195,1791554350092721809
-0.1412562131881714,0.4495757818222046,0.561983462927093,1791554350125259084
-0.08411121368408203,-0.28403186798095703,0.7023089543236412,1791554350161404036
-0.0672675371170044,-0.418732225894928,0.6048526791560471,1791554350191498582
0.07478958368301392,0.5851638317108154,0.6253345899397273,1791554350221469211
0.07000613212585449,0.6941489577293396,0.5821825121054758,1791554350253182977
-0.1591586470603943,-0.5470325350761414,0.5818010894505833,1791554350285307085
-0.1826711893081665,-0.19250380992889404,0.715730755832303,1791554350311701345
-0.05713921785354614,0.041145384311676025,0.6142372096397402,1791554350341780041
-0.07797259092330933,0.972838282585144,0.5808793465719114,1791554350371617833
-0.16513341665267944,-0.4582875370979309,0.6012636731245157,1791554350401652358
-0.2719038128852844,-0.4181537628173828,0.6098193287154401,1791554350431700588
0.13332903385162354,0.677072286605835,0.6209999561116591,1791554350461731301
0.1987401247024536,0.4834749102592468,0.5929330024807331,1791554350492680602
-0.2739453911781311,-0.7810454964637756,0.5390525820800595,1791554350524651394
-0.017570316791534424,0.2939522862434387,0.6641583205161126,1791554350551843757
0.6077998280525208,0.8285742998123169,0.643098810519963,1791554350581857673
-0.569028377532959,-0.6834709644317627,0.6149102365307577,1791554350610912727
0.1391589641571045,0.9352938532829285,0.5894225231000981,1791554350630438813
0.10354095697402954,0.8825820684432983,0.5758647061941735,1791554350671962532
0.038750290870666504,0.28206074237823486,0.5938276479776411,1791554350701985440
-0.4504779577255249,-0.7951077818870544,0.615550665883557,1791554350733059629
0.25804442167282104,0.1624138355255127,0.5949768607506449,1791554350765136036
0.017131268978118896,1.1569626331329346,0.6360841177157976,1791554350792458317
-0.23047107458114624,-0.5865812301635742,0.5805672009997137,1791554350822159875
0.04944276809692383,-0.3346540927886963,0.6038807762547828,1791554350852237009
-0.22482025623321533,0.18447822332382202,0.6043011839968744,1791554350882221450
0.23407846689224243,0.7761194705963135,0.6289016899552994,1791554350912262160
0.15214097499847412,-0.2569078207015991,0.5914377031066781,1791554350942270361
-0.24110263586044312,-0.29188966751098633,0.5503712734114545,1791554350972636094
0.48090314865112305,0.5766501426696777,0.563334394819617,1791554351004968555
-0.10959196090698242,0.2945175766944885,0.6694952280112846,1791554351032425356
-0.33260172605514526,-0.4334874153137207,0.5850540224970304,1791554351062408716
0.026921510696411133,-0.013322055339813232,0.6076348646083952,1791554351092443004
0.3698543906211853,0.9839694499969482,0.5973138538435542,1791554351122751919
-0.09842252731323242,-0.24280887842178345,0.599809705699754,1791554351152512622
-0.07329118251800537,-0.41105759143829346,0.62368568771908,1791554351182565686
0.1346387267112732,0.6317002177238464,0.5977373395785095,1791554351213111716
-0.1265418529510498,0.3160485029220581,0.5598099890152947,1791554351244917508
-0.07431232929229736,-0.5586237907409668,0.592348265987832,1791554351274696708
-0.0681416392326355,0.6340515613555908,0.6000813122640898,1791554351372836163
-0.02208811044692993,0.491743803024292,0.5183665612602086,1791554351405605586
-0.2127171754837036,-0.7711070775985718,0.6069764794918787,1791554351435153828
0.27767014503479004,0.6227603554725647,0.6489395278298897,1791554351462959704
-0.10040438175201416,0.6301047205924988,0.5802961735042501,1791554351492919703
-0.03227663040161133,-0.6126161813735962,0.6007403657463195,1791554351521937904
-0.0841781497001648,-0.18739473819732666,0.5717230189626906,1791554351553028142
-0.1022081971168518,0.8833176493644714,0.6020125748316785,1791554351583006774
-0.078005850315094,-0.08184242248535156,0.6088769677419453,1791554351613086162
-0.0923120379447937,-0.312356173992157,0.5521033819236786,1791554351644789504
0.3396402597427368,0.41477614641189575,0.5663751014346673,1791554351676286189
0.22347068786621094,0.34044647216796875,0.6469766304250866,1791554351713214604
-0.31434082984924316,0.43638455867767334,0.5737419658627448,1791554351743238332
0.1687164306640625,-0.41395318508148193,0.5673157506112179,1791554351773291108
0.29568278789520264,0.095691978931427,0.5390868911711292,1791554351804765525
-0.39097708463668823,0.8068119883537292,0.5321508687438913,1791554351836727179
-0.1590527892112732,-0.3878439664840698,0.6422472239700483,1791554351864084295
-0.11809742450714111,-0.32693541049957275,0.5858192100648328,1791554351893494507
0.6733353734016418,0.9671292304992676,0.48601580708463604,1791554351916586018
0.19881391525268555,0.9219070672988892,0.6167901408878965,1791554351953634438
-0.14187121391296387,-0.4620065689086914,0.5782068669702998,1791554351983490610
-0.10079985857009888,-0.1870904564857483,0.6002549546525038,1791554352013523066
0.5905049443244934,0.758027970790863,0.5647293297495183,1791554352045233238
-0.2833787202835083,0.004659771919250488,0.5237556438217658,1791554352077150655
-0.10834842920303345,-0.42897897958755493,0.6245132203720589,1791554352113852136
-0.3895154595375061,-0.5480966567993164,0.5836793718912006,1791554352143699327
0.17580151557922363,0.8487932682037354,0.5949964596469994,1791554352173782061
0.03683829307556152,0.26507192850112915,0.580779335215341,1791554352204796559
-0.3692079782485962,-0.5600600838661194,0.5269356608496122,1791554352237198184
-0.12088263034820557,-0.4164999723434448,0.6405066520143925,1791554352273899991
0.1518070101737976,0.6683349609375,0.5823433509929684,1791554352303893072
-0.05687308311462402,0.2640286684036255,0.5341481839500085,1791554352333924133
0.07888895273208618,-0.5828284025192261,0.5396735617071934,1791554352365126331
0.028440356254577637,0.2831793427467346,0.5695665893555959,1791554352395604512
0.25406938791275024,0.36753541231155396,0.5924077002093082,1791554352424385876
0.4732357859611511,0.8671115040779114,0.5876179466905584,1791554352464052679
0.15833443403244019,0.23030799627304077,0.5365790099344636,1791554352494089486
0.014237701892852783,-0.6476877927780151,0.5525815646108558,1791554352525155220
0.24084711074829102,0.39099711179733276,0.5536803358009674,1791554352557065621
-0.44172215461730957,0.66953045129776,0.6164323622831653,1791554352584301167
0.06415945291519165,-0.4756782650947571,0.5633891293306749,1791554352614279657
-0.13081955909729004,0.10784214735031128,0.5485116359451007,1791554352644468236
0.28889137506484985,0.6418473124504089,0.5701820606014412,1791554352674429901
-0.03282022476196289,-0.11437773704528809,0.6502418493102345,1791554352703325047
-0.4935089349746704,-0.27150237560272217,0.5564674077930825,1791554352734663047
0.1527816653251648,0.3210906386375427,0.5454228334080194,1791554352764748947
-0.10555434226989746,0.10842400789260864,0.5198068236878799,1791554352796670858
0.25002557039260864,-0.37271541357040405,0.5830774917673001,1791554352824937626
0.01967442035675049,0.4895496368408203,0.5793451704010044,1791554352854521931
0.3612208366394043,-0.43562012910842896,0.5779505835082328,1791554352894349408
0.16305363178253174,0.3331277370452881,0.5785706449871115,1791554352924325863
-0.0026065707206726074,-0.04037362337112427,0.5244804021605837,1791554352956919944
0.02336031198501587,-0.5650644302368164,0.5428948007880012,1791554352987127476
-0.18651610612869263,-0.42182648181915283,0.5181799390312634,1791554353036838731
0.20364612340927124,0.0662110447883606,0.5690419479007252,1791554353066778538
-0.06519222259521484,0.5025292038917542,0.6187066383184137,1791554353094359540
-0.09058713912963867,-0.2726956605911255,0.5617494068060391,1791554353125302948
0.15939700603485107,-0.046944260597229004,0.553999552051775,1791554353155383081
0.09902286529541016,0.5296161770820618,0.5598982656022846,1791554353184334721
0.02914482355117798,0.1637279987335205,0.5121812009389521,1791554353215410983
-0.3541387915611267,-0.510708212852478,0.5217927469074956,1791554353245887701
0.07782948017120361,0.2562268376350403,0.5593297668765872,1791554353276706920
0.13092637062072754,0.6386864185333252,0.5711049721671722,1791554353307193146
0.03330892324447632,-0.3121644854545593,0.5838354227737177,1791554353335531598
-0.08673650026321411,-0.09645318984985352,0.5595671252347,1791554353365377773
-0.02216404676437378,-0.11597400903701782,0.4975292925252371,1791554353388293790
-0.17952120304107666,-0.05540889501571655,0.6077837646227887,1791554353425401066
0.14154499769210815,-0.1099233627319336,0.5645195837279742,1791554353455572264
-0.061716675758361816,-0.06705951690673828,0.5626293222951149,1791554353485685058
0.21594417095184326,0.7320536375045776,0.543488923956622,1791554353517108289
-0.10953444242477417,-0.3398584723472595,0.5414555967273783,1791554353548924626
0.15139532089233398,-0.09004098176956177,0.5850538789344393,1791554353585575824
-0.013435900211334229,-0.19217222929000854,0.5276805508544724,1791554353615934635
0.41604626178741455,0.5171235799789429,0.5630503306810927,1791554353645634927
-0.38131916522979736,-0.042572617530822754,0.5306114866287761,1791554353676744282
0.21162879467010498,-0.28001993894577026,0.5059328783800656,1791554353709403725
-0.06967049837112427,0.46453601121902466,0.5982136534591728,1791554353735845275
0.03198057413101196,0.21384268999099731,0.5244915270306842,1791554353765641207
-0.010873675346374512,-0.5049644112586975,0.5592064470980987,1791554353795687412
0.09913170337677002,-0.26875340938568115,0.5433172476761553,1791554353837156263
0.4381523132324219,0.531063437461853,0.533794644750336,1791554353869193083
-0.027927696704864502,0.11876499652862549,0.6166904267310394,1791554353895482814
-0.170973002910614,-0.3093305826187134,0.5321170291044359,1791554353925706161
0.1713649034500122,0.2021721601486206,0.5636065741085118,1791554353955828893
-0.20130014419555664,0.5795637965202332,0.544231666853405,1791554353985866402
0.06608211994171143,0.27292323112487793,0.5251212014644364,1791554354015928437
-0.2111048698425293,-0.55345219373703,0.5499307428764185,1791554354045879045
0.006277918815612793,0.2589312195777893,0.5244064120261313,1791554354076826704
0.2096896767616272,0.6125527620315552,0.5409121488626836,1791554354108749335
-0.3158196210861206,-0.559988260269165,0.5961087367984491,1791554354136755527
0.19967597723007202,0.1542375683784485,0.5326877921842358,1791554354166004777
0.25839149951934814,0.5674683451652527,0.5381848731801435,1791554354196079153
-0.13091063499450684,-0.23416155576705933,0.5626549976467302,1791554354225377667
-0.19332891702651978,-0.1339271068572998,0.5547340849737825,1791554354256129167
0.32853084802627563,0.45214396715164185,0.5742586380471881,1791554354286179709
-0.25283145904541016,0.1327000856399536,0.5016367220659615,1791554354317188674
-0.013531923294067383,-0.2481711506843567,0.5065132952598215,1791554354349154790
0.27685993909835815,0.3111315965652466,0.6197671178292546,1791554354376837705
0.038976430892944336,0.4889864921569824,0.5650544177494727,1791554354415338805
-0.06963437795639038,0.25908398628234863,0.5306447369664621,1791554354446558490
-0.15986627340316772,-0.32878297567367554,0.507255463179503,1791554354477246787
0.09665566682815552,0.22626471519470215,0.5054114942450935,1791554354508783431
-0.01842522621154785,0.4915686249732971,0.6095845380713967,1791554354536765810
-0.011194288730621338,0.06195563077926636,0.5515493783278003,1791554354566515483
0.06361013650894165,-0.21259450912475586,0.5295855075902446,1791554354596740682
0.15449678897857666,0.2564033269882202,0.5250050976189625,1791554354626585041
-0.16115731000900269,0.1728718876838684,0.527716955669415,1791554354656622178
0.10674852132797241,-0.3960067629814148,0.5615427930554254,1791554354686695591
-0.023149192333221436,0.18849849700927734,0.5330168268815101,1791554354716890153
0.09307295083999634,0.473938524723053,0.49232451370847824,1791554354748851522
0.21963965892791748,-0.4196484684944153,0.5788847195776009,1791554354777500639
0.039994895458221436,0.0013677477836608887,0.5558687570243857,1791554354806783482
-0.2895405888557434,0.6615208983421326,0.5396470141979063,1791554354836825493
0.37546151876449585,-0.29789847135543823,0.533489859248222,1791554354866843566
-0.2266407012939453,-0.1436915397644043,0.5407962007672262,1791554354897090153
0.22440898418426514,0.6467880010604858,0.5663871969950043,1791554354926912654
-0.2196749448776245,-0.16074883937835693,0.5449786532021237,1791554354957074165
-0.20459461212158203,-0.35309934616088867,0.48620465475579927,1791554354989479762
0.2547791004180908,0.5388841032981873,0.5216352251882674,1791554355020034078
0.21375614404678345,0.5699266195297241,0.5827529588022569,1791554355047192847
-0.11869889497756958,0.056094586849212646,0.5300855672659449,1791554355077084776
-0.0027643442153930664,-0.42474985122680664,0.5435999599046761,1791554355107115141
-0.0019202828407287598,0.5979897379875183,0.5437219494362197,1791554355136169033
0.17595577239990234,0.15699893236160278,0.5096017547904661,1791554355167187743
-0.09187561273574829,-0.41238701343536377,0.5400698490092318,1791554355197229910
0.1684495210647583,0.4621042013168335,0.5068797989452706,1791554355228776167
-0.01290363073348999,0.28871989250183105,0.5223094856507622,1791554355259747417
-0.27558934688568115,-0.30116748809814453,0.5729912610332153,1791554355287398988
-0.05579864978790283,-0.009527444839477539,0.5266911668646009,1791554355317372786
0.23245835304260254,0.38625049591064453,0.547019036267263,1791554355347427120
-0.1295604705810547,-0.0740135908126831,0.5152356540854508,1791554355377480546
0.13770782947540283,0.03739464282989502,0.5133518170579665,1791554355407476494
-0.07801705598831177,0.1308687925338745,0.5125617586727952,1791554355437580032
-0.0667681097984314,-0.11181116104125977,0.4866258747723382,1791554355469882013
0.05176389217376709,0.04790431261062622,0.5235446379472036,1791554355501290360
0.06056886911392212,0.34998518228530884,0.584359409530691,1791554355527745671
0.07185596227645874,-0.011150956153869629,0.5046302628064403,1791554355557692494
-0.3485656976699829,-0.39287686347961426,0.5224633966620368,1791554355587717186
0.3033810257911682,0.216031014919281,0.5058234024419735,1791554355617713446
0.09250432252883911,0.4455622434616089,0.5312738327060958,1791554355647750003
-0.23517334461212158,-0.4141281247138977,0.5132428741345398,1791554355677800038
0.03616654872894287,0.012521445751190186,0.47684575446582533,1791554355708868599
0.24389469623565674,0.49676936864852905,0.5032585908078526,1791554355740826166
0.0581781268119812,-0.03524988889694214,0.573922045534094,1791554355768273614
-0.24958300590515137,-0.2978951930999756,0.5345983227156529,1791554355797964344
0.4286535978317261,0.5019447803497314,0.5490020114679026,1791554355827977283
-0.49377042055130005,0.09813851118087769,0.515442842423685,1791554355857992827
0.12504667043685913,-0.47115254402160645,0.49575407798726867,1791554355888128098
0.0816793441772461,0.3446868062019348,0.5365390081808863,1791554355918086107
-0.10803383588790894,0.3910295367240906,0.4956474940935948,1791554355949531258
0.0756111741065979,-0.46630650758743286,0.5197565517557602,1791554355980917166
-0.05583763122558594,0.2250714898109436,0.6029936244678021,1791554356007238174
0.10082972049713135,0.46956074237823486,0.4720189197233367,1791554356038239693
-0.15249210596084595,-0.2759932279586792,0.5285560764299416,1791554356067424119
-0.10616862773895264,-0.059915363788604736,0.49069276575790116,1791554356098462415
-0.009673774242401123,0.11055552959442139,0.5306052109743127,1791554356127378872
0.13197797536849976,0.30571627616882324,0.48961392186019975,1791554356158448264
-0.1311788558959961,-0.04263263940811157,0.5031428036825523,1791554356188866916
0.4371643662452698,0.009007811546325684,0.4855774310127378,1791554356221515555
-0.14916527271270752,0.30668556690216064,0.563863236934444,1791554356248808417
0.017283856868743896,-0.09922432899475098,0.520113924396659,1791554356278588678
-0.1955440640449524,-0.04691284894943237,0.5186875347248282,1791554356308568893
0.025118112564086914,0.2812368869781494,0.5022555276721936,1791554356338630813
0.010321259498596191,0.139937162399292,0.5040065680620371,1791554356368710041
-0.03434962034225464,-0.11236649751663208,0.5106546705994545,1791554356398668781
0.06049227714538574,0.35582101345062256,0.494235610546014,1791554356428892161
-0.07403969764709473,0.061631083488464355,0.44763909699965604,1791554356461635824
-0.17488348484039307,-0.10423547029495239,0.5186005187616496,1791554356488809780
0.01966261863708496,0.22060179710388184,0.5021919002000073,1791554356518764377
0.011672496795654297,-0.11473864316940308,0.5386174433783343,1791554356548942031
0.0983925461769104,0.22594624757766724,0.5191694067883623,1791554356578868308
0.31510013341903687,0.2992185950279236,0.5098160320299752,1791554356608927432
0.06650596857070923,0.10699397325515747,0.5198603067549344,1791554356638954047
-0.2864150404930115,0.00041937828063964844,0.5128752837666666,1791554356669084674
-0.3204258680343628,-0.1499609351158142,0.4867110655729935,1791554356700965354
0.34490931034088135,0.46413201093673706,0.5553074169427417,1791554356729234526
-0.16414839029312134,0.1875937581062317,0.5141115582898349,1791554356759061661
0.002521038055419922,-0.32297611236572266,0.5325760179764027,1791554356789043848
-0.1403331756591797,0.3395644426345825,0.5239818731222373,1791554356819149490
-0.08070242404937744,0.12844258546829224,0.5005050676108048,1791554356849133086
-0.004456281661987305,-0.26933377981185913,0.49341005223890716,1791554356879321749
0.099712073802948,0.33827322721481323,0.5199780973181887,1791554356908326761
-0.05214434862136841,0.11691302061080933,0.4959262693045409,1791554356939953082
0.04824650287628174,-0.3120929002761841,0.4780696487905677,1791554356971424871
0.032132744789123535,0.29102623462677,0.5229656017870781,1791554356999416207
0.024447619915008545,0.4848097562789917,0.5191029341445897,1791554357028353524
-0.3653116226196289,-0.43237733840942383,0.490624199932232,1791554357059424711
0.3679043650627136,0.20266520977020264,0.5272918741022597,1791554357089397493
0.0857536792755127,0.45112574100494385,0.501991345849686,1791554357119545379
-0.41734766960144043,0.11379307508468628,0.4805923028111705,1791554357149578614
-0.0560528039932251,-0.3763982057571411,0.49038791862960035,1791554357181128969
0.18556660413742065,0.46693599224090576,0.47420935451231466,1791554357213279937
-0.08336251974105835,0.34479308128356934,0.5630979392706047,1791554357239633907
0.08134013414382935,-0.5691086649894714,0.5037580884011765,1791554357270143944
-0.07610422372817993,0.21523034572601318,0.4940727133352288,1791554357299681663
0.03575664758682251,0.4958217144012451,0.5083860477940614,1791554357329706821
-0.07374399900436401,-0.42040562629699707,0.5085135103175736,1791554357360086161
0.21200978755950928,0.07394206523895264,0.5042259964636903,1791554357389810234
-0.18894672393798828,0.4893820881843567,0.5081832506413695,1791554357420334269
-0.09700387716293335,-0.344359815120697,0.43167146865002415,1791554357453401959
-0.0897795557975769,-0.5689876079559326,0.5427827493752642,1791554357489896915
0.5226088166236877,0.29521673917770386,0.5214137313480023,1791554357519938661
-0.544233500957489,0.6107696294784546,0.48277312993437477,1791554357549959096
-0.11944109201431274,-0.6339979767799377,0.4946132436337252,1791554357580957368
-0.1488884687423706,0.3662315011024475,0.4462195955992011,1791554357613591851
0.14090532064437866,0.4197008013725281,0.547951040425371,1791554357650751886
0.06911343336105347,0.6737909317016602,0.5273806625112407,1791554357680791538
-0.2252962589263916,-0.2181715965270996,0.50419311850134,1791554357710990177
-0.09670203924179077,-0.31720125675201416,0.5088020438075277,1791554357741369704
0.29401546716690063,0.670258641242981,0.4698637806055955,1791554357773201485
0.07623946666717529,0.6147159337997437,0.5315415996517535,1791554357810825742
-0.145377516746521,-0.4469475746154785,0.4932670656232355,1791554357830816580
-0.15816283226013184,-0.13817757368087769,0.49794178394347327,1791554357870744690
0.302509605884552,0.6524102091789246,0.480283431266639,1791554357901254949
-0.3911325931549072,-0.1377553939819336,0.4336376052567401,1791554357933635234
-0.003042459487915039,-0.1461656093597412,0.5490395396040714,1791554357960644892
0.153903067111969,0.683928370475769,0.5081999807416304,1791554357990479339
-0.13841241598129272,-0.20820260047912598,0.4048135956322989,1791554358013949122
-0.05560559034347534,0.3072386384010315,0.532413073298856,1791554358040648498
-0.1976720094680786,-0.023226797580718994,0.47981441056357144,1791554358070550549
0.05021548271179199,-0.15933823585510254,0.49007567742039193,1791554358100606031
-0.013682007789611816,0.30532699823379517,0.5160000115635424,1791554358130634184
0.1098673939704895,0.2955475449562073,0.4976602887609981,1791554358160693951
-0.3237437605857849,0.08256274461746216,0.4778262965643587,1791554358190892474
0.12210726737976074,-0.39174461364746094,0.4872638709851056,1791554358221041126
0.013641536235809326,0.5818988680839539,0.4530709391340228,1791554358253745992
-0.21659797430038452,-0.03527247905731201,0.5473716986397679,1791554358280917103
0.06480509042739868,-0.1749018430709839,0.4847995807761065,1791554358310861672
0.08327484130859375,0.4264623522758484,0.46450013031314175,1791554358341097090
-0.21384263038635254,-0.08353942632675171,0.5017766991788799,1791554358370918542
-0.038798630237579346,-0.21583783626556396,0.4938380442702511,1791554358400977182
0.1975865364074707,0.5614414215087891,0.48937877166640925,1791554358430974722
-0.1571226716041565,-0.0016151666641235352,0.4823288923088106,1791554358461527330
0.06634533405303955,-0.19724202156066895,0.4479563123867998,1791554358493194841
-0.022672414779663086,0.18226754665374756,0.5321370998060974,1791554358521154253
0.1378808617591858,0.15045154094696045,0.47745068010079345,1791554358551450062
-0.01688474416732788,-0.13497519493103027,0.4734992643869495,1791554358581172148
-0.022786498069763184,0.11665076017379761,0.49525169570304595,1791554358611200277
0.039393723011016846,0.25708502531051636,0.5013838727748763,1791554358641236489
0.22331923246383667,-0.08531200885772705,0.5113771097800487,1791554358671309345
0.15323996543884277,0.035853028297424316,0.4924913217168906,1791554358701450383
-0.006819665431976318,0.26992714405059814,0.4569022812279405,1791554358732528348
-0.018149912357330322,0.11920440196990967,0.4645916820994159,1791554358781395960
0.1288461685180664,0.5814293026924133,0.4528970461610506,1791554358813184586
-0.2299206256866455,-0.4021797180175781,0.47027288131236167,1791554358844042714
-0.04912489652633667,0.14535760879516602,0.49731567224542433,1791554358871649558
0.1134103536605835,0.36695396900177,0.477115228717532,1791554358901552329
-0.22753465175628662,-0.15516060590744019,0.46692479190140157,1791554358931786112
-0.3028428554534912,0.07953304052352905,0.47514837519424136,1791554358961614958
0.3013504147529602,0.4842737317085266,0.49387349091975924,1791554358991630203
-0.3465232253074646,-0.1468854546546936,0.4521995113057976,1791554359022242321
0.08805549144744873,-0.18367326259613037,0.46889518071145947,1791554359053169643
0.3366723656654358,0.3133705258369446,0.48058517892970914,1791554359085394518
-0.015773892402648926,0.28418171405792236,0.5174903106830416,1791554359121813897
0.1107516884803772,-0.31381577253341675,0.5147201384056571,1791554359151822151
-0.5764928460121155,0.4911329746246338,0.4887015841686091,1791554359181857584
0.10086125135421753,0.47027844190597534,0.4650521533744484,1791554359221969038
0.2066669464111328,0.7071727514266968,0.46559063414164503,1791554359252220836
-0.2997085452079773,-0.4226182699203491,0.4953836866365076,1791554359281963521
0.17344820499420166,-0.16841638088226318,0.49205492799240286,1791554359312000759
-0.045781612396240234,0.7817007303237915,0.47347855938342537,1791554359342048895
0.25871026515960693,-0.14468610286712646,0.4402616507356467,1791554359373250536
-0.12426471710205078,-0.20534133911132812,0.42624556466221947,1791554359405669525
-0.19825321435928345,0.5198943614959717,0.5688968936947985,1791554359431414234
-0.003145754337310791,-0.10552656650543213,0.48370674270145253,1791554359462165141
-0.2803891897201538,0.016676664352416992,0.46579440896296914,1791554359492185089
0.019350945949554443,0.4610286355018616,0.4651727716350799,1791554359522222853
-0.19283682107925415,-0.3643990159034729,0.504713374701908,1791554359551494629
0.28094834089279175,0.15826952457427979,0.48290588015705205,1791554359581329924
-0.05217677354812622,0.5172617435455322,0.4563835614780907,1791554359613234487
-0.35223889350891113,-0.0160253643989563,0.4421995119954723,1791554359644146301
-0.008498072624206543,-0.41168153285980225,0.49503065167504223,1791554359672141268
0.05179077386856079,0.4073667526245117,0.48521082227759976,1791554359702813737
0.1773068904876709,0.13541316986083984,0.48252483549587544,1791554359732477465
-0.19256281852722168,-0.28343623876571655,0.4694136896711593,1791554359762690827
0.01814955472946167,-0.1374766230583191,0.47164894734684837,1791554359792532560
-0.07239377498626709,0.5521326065063477,0.45193066292236994,1791554359822616947
-0.15180045366287231,0.004539430141448975,0.4336635927385758,1791554359885466134
-0.05229133367538452,0.635509729385376,0.5248828575514665,1791554359912806662
-0.013638079166412354,-0.32667702436447144,0.4683133472089139,1791554359942968260
0.006107449531555176,0.11739450693130493,0.4523530283767419,1791554359972786553
0.12219434976577759,0.3252566456794739,0.4807663923850271,1791554360002789328
-0.253329336643219,-0.2232733964920044,0.479274737392305,1791554360032822821
0.3123266100883484,0.3744856119155884,0.46550132532784294,1791554360062870935
-0.05938631296157837,0.17981594800949097,0.4657901389326834,1791554360093658040
-0.013507604598999023,-0.11214542388916016,0.45310832109194127,1791554360124328334
-0.02896207571029663,-0.028536856174468994,0.5129260443633222,1791554360153018665
-0.2198580503463745,0.43104708194732666,0.4888228838849736,1791554360183021530
-0.14484596252441406,-0.1369578242301941,0.4722119278438466,1791554360213021544
0.16601794958114624,-0.022235572338104248,0.447032825617431,1791554360243228634
-0.2157820463180542,0.5991550087928772,0.4491826595396828,1791554360273167666
0.049601197242736816,0.16742676496505737,0.48694510778884087,1791554360303173930
-0.20006895065307617,-0.17395246028900146,0.4777325552235415,1791554360332346262
0.10199862718582153,0.2570273280143738,0.39732318984348314,1791554360365829658
0.19767189025878906,0.19211894273757935,0.4762611733180407,1791554360395502749
-0.2190297245979309,-0.043223798274993896,0.48431737532985847,1791554360433277895
0.22150617837905884,-0.16502892971038818,0.4976194912024507,1791554360462331474
-0.22256362438201904,0.5051336288452148,0.43338319129242225,1791554360494066821
0.04304283857345581,0.19268256425857544,0.43365073454741077,1791554360525580039
-0.15552306175231934,-0.38556891679763794,0.45287783022795486,1791554360556393307
-0.05711722373962402,0.5375963449478149,0.5138679389358902,1791554360583345338
-0.09810513257980347,-0.08338463306427002,0.4961610380912282,1791554360613483595
0.0737297534942627,-0.05549818277359009,0.44712260243243634,1791554360643510329
-0.14557945728302002,0.18245095014572144,0.4364223407026608,1791554360673559512
0.0004768967628479004,-0.03328597545623779,0.4706879129896442,1791554360703630298
-0.17330461740493774,0.03144228458404541,0.4482835315483008,1791554360733670107
0.0861392617225647,0.1652929186820984,0.45000660880624993,1791554360765163675
0.05773460865020752,0.15065240859985352,0.4166253735836781,1791554360797059725
0.13435101509094238,0.26515984535217285,0.47191913004059943,1791554360833732924
-0.10089874267578125,0.04084867238998413,0.4697223457684078,1791554360863767358
0.04185706377029419,0.035486042499542236,0.47382800773429695,1791554360893821985
-0.05905848741531372,-0.02666538953781128,0.44886071606508576,1791554360925544137
-0.11433100700378418,-0.049742698669433594,0.4149328086481709,1791554360957159567
0.2616824507713318,0.2049037218093872,0.5147272505299968,1791554360984281923
0.39480161666870117,0.10951334238052368,0.48099682990076975,1791554361013947035
-0.2552803158760071,-0.2560504674911499,0.47079507553880934,1791554361043973268
0.2742006182670593,0.0726587176322937,0.4886090740356548,1791554361074158132
0.05515742301940918,0.4110252261161804,0.4769531122179174,1791554361104074117
0.11045235395431519,-0.010049283504486084,0.41558337829513564,1791554361134070335
-0.017088890075683594,-0.1875966191291809,0.3966258382899924,1791554361165367150
-0.42168766260147095,0.17882615327835083,0.4059646296213582,1791554361197932550
-0.08903467655181885,-0.03597921133041382,0.5812547856003859,1791554361223335238
-0.05266976356506348,0.22091639041900635,0.46570860522529045,1791554361254265877
0.14832723140716553,0.04106014966964722,0.37752087436920617,1791554361277609182
-0.22769474983215332,-0.16849273443222046,0.4959886248438767,1791554361313358541
0.11095404624938965,0.3719232678413391,0.40592793567563457,1791554361335347871
0.1231570839881897,0.30452728271484375,0.4755083314989229,1791554361374390607
0.03546929359436035,-0.10198622941970825,0.4241033066916432,1791554361405563114
-0.08150577545166016,-0.06725424528121948,0.39279246885660335,1791554361437404280
0.1874675154685974,0.18021905422210693,0.5307301220325422,1791554361463519515
0.20927590131759644,0.0515899658203125,0.4602081582278177,1791554361493815389
-0.14627701044082642,-0.03526425361633301,0.453543799874976,1791554361524533041
-0.11941659450531006,0.08005982637405396,0.4527069163516894,1791554361554641563
-0.2327321171760559,-0.029167771339416504,0.4447929499600649,1791554361574880989
0.02266627550125122,0.07929110527038574,0.468359505790213,1791554361614670060
-0.02286815643310547,0.43961721658706665,0.4147609206847648,1791554361645857834
0.2103094458580017,-0.1679692268371582,0.42367562346504944,1791554361677187853
-0.1961037516593933,-0.23241335153579712,0.4914189991058918,1791554361705065020
-0.021604061126708984,0.3738117218017578,0.46335699634371585,1791554361734788808
0.08531737327575684,0.05303245782852173,0.4514621678751061,1791554361764819691
-0.343200147151947,-0.044856250286102295,0.42951380136831224,1791554361794910652
0.08960217237472534,0.23424190282821655,0.45374923236281794,1791554361825000082
-0.07419997453689575,-0.09504830837249756,0.4631465067114803,1791554361854974620
0.0037821531295776367,0.05329865217208862,0.44955164002102116,1791554361884360196
0.25758957862854004,0.32611870765686035,0.41795701460685597,1791554361917170885
-0.28480321168899536,0.2128174901008606,0.4823587781354141,1791554361945060630
0.03246492147445679,-0.3790806531906128,0.44167576874704445,1791554361975834827
-0.027181029319763184,0.2428532838821411,0.454553666810482,1791554362005753455
0.076774001121521,0.47849684953689575,0.4364940718376236,1791554362035751722
0.256137490272522,-0.19599568843841553,0.4734692708383315,1791554362065802206
-0.42113596200942993,0.16106659173965454,0.45165351032664486,1791554362095862836
-0.25880175828933716,-0.05943000316619873,0.4468009380960572,1791554362125929678
0.24495446681976318,0.10090506076812744,0.42667556351834496,1791554362157829888
-0.37614279985427856,0.2724303603172302,0.40365363770751783,1791554362188856609
0.26842886209487915,0.09208899736404419,0.5003956528524572,1791554362225838030
-0.5581143498420715,-0.09447425603866577,0.43156490688738325,1791554362255840016
0.433662474155426,-0.05801481008529663,0.4376472812027865,1791554362285857177
-0.016265273094177246,0.532782256603241,0.4034640247559341,1791554362317246188
-0.02247297763824463,-0.055552899837493896,0.41791361371818375,1791554362348523211
0.08826279640197754,-0.11999744176864624,0.5239031803596143,1791554362375339912
0.347481369972229,0.3448072671890259,0.4392471408311714,1791554362406189193
0.14309918880462646,0.1340698003768921,0.4510425744518754,1791554362435906000
-0.38135677576065063,-0.07241660356521606,0.42479987127221813,1791554362465878482
-0.0038400888442993164,0.14251577854156494,0.4480067209760798,1791554362495977478
-0.018149077892303467,0.11168783903121948,0.46564711566055095,1791554362526207442
-0.01070106029510498,-0.14435607194900513,0.4158103716782858,1791554362557296978
0.28425663709640503,0.06068456172943115,0.4030230369595093,1791554362589734196
0.09405982494354248,0.08840197324752808,0.5059244251897668,1791554362616103363
-0.10437041521072388,0.12556535005569458,0.4446165357337941,1791554362645341661
0.2790566086769104,0.07127642631530762,0.44456887959559943,1791554362676089901
-0.3532560467720032,-0.06711411476135254,0.44665648186857465,1791554362706063726
0.3511822819709778,0.18167364597320557,0.4295429677252809,1791554362736093121
-0.06504678726196289,-0.05401945114135742,0.43683543554643933,1791554362766155180
0.2539072036743164,0.13972747325897217,0.41625645785636994,1791554362798215493
-0.14036399126052856,0.00783538818359375,0.4504560676678096,1791554362829471250
0.33446186780929565,0.32333433628082275,0.49532571598186415,1791554362856186014
-0.2901182770729065,0.17764246463775635,0.43914370443835676,1791554362886250825
0.06726104021072388,-0.2027958631515503,0.4230710836110277,1791554362916471770
-0.09616422653198242,-0.057922959327697754,0.44400160721302173,1791554362945358697
0.1308392882347107,0.14149445295333862,0.45591315140690597,1791554362976255571
-0.29773372411727905,0.24623233079910278,0.45598036368010403,1791554363015349638
-0.058766841888427734,0.021112918853759766,0.4263042634995504,1791554363046269330
0.08000445365905762,0.05154770612716675,0.4446280280616073,1791554363075329132
-0.11635363101959229,0.09076446294784546,0.43713663510645284,1791554363105350016
0.09070813655853271,-0.1297069787979126,0.4360648414545552,1791554363136384624
-0.24882149696350098,0.4264683127403259,0.4302935520114848,1791554363166419699
0.02178257703781128,0.3132796287536621,0.4057733377939081,1791554363197554860
-0.43150603771209717,-0.29477083683013916,0.40424001083697575,1791554363229204416
0.48495054244995117,0.174324631690979,0.4915975979864405,1791554363256766311
0.028820335865020752,-0.07925218343734741,0.4631705410351392,1791554363285325604
-0.07818382978439331,-0.06143367290496826,0.4040154472614802,1791554363326637397
0.23484832048416138,-0.14048469066619873,0.42323254030694135,1791554363357682963
0.06560420989990234,0.3810320496559143,0.39587679808080906,1791554363389499329
0.09567826986312866,-0.06829982995986938,0.46197042865084204,1791554363417182445
-0.39351481199264526,-0.2078288197517395,0.4298293518270761,1791554363446954710
0.1571422815322876,0.1417524218559265,0.4319842559641891,1791554363476788116
0.07778716087341309,0.2108989953994751,0.46477546481356663,1791554363506830339
-0.0810929536819458,-0.18741583824157715,0.4190109396245287,1791554363536865368
0.3031734824180603,0.09890216588973999,0.4371832525558945,1791554363566902234
-0.3566911816596985,0.1173751950263977,0.4329154236998771,1791554363597258923
0.46103549003601074,0.19726723432540894,0.5029000449767054,1791554363657081233
-0.3633081912994385,0.0019153356552124023,0.4214479684682362,1791554363687168688
0.08831959962844849,-0.3033595085144043,0.42849474445243885,1791554363717265158
0.2613668441772461,0.6421231031417847,0.4296671328164533,1791554363747075270
0.028641343116760254,0.08837056159973145,0.4118934859233212,1791554363777458690
0.06385618448257446,-0.2632908225059509,0.43661745738424973,1791554363807183138
0.02441716194152832,0.40850651264190674,0.4042877410846229,1791554363837519768
0.12023389339447021,-0.06181132793426514,0.41353806919563196,1791554363869289013
-0.12890750169754028,-0.04013621807098389,0.4304716700234902,1791554363900257678
-0.0362277626991272,0.453585684299469,0.5196666035620894,1791554363926360537
0.08011448383331299,0.2412700057029724,0.43225195845879155,1791554363957568122
0.007358551025390625,-0.2690366506576538,0.43876862228984975,1791554363987426589
-0.0121040940284729,0.08360576629638672,0.45561482263228165,1791554364017397872
-0.1143994927406311,0.37476253509521484,0.42968776721567176,1791554364047465813
-0.10405218601226807,-0.14497590065002441,0.40756261317381687,1791554364077702219
0.2685137987136841,-0.11105489730834961,0.39104659549412457,1791554364109253440
0.2534024119377136,0.362479567527771,0.4116352923443699,1791554364139786493
-0.043428003787994385,-0.11627596616744995,0.4666048436358655,1791554364167629747
-0.17902159690856934,0.20152878761291504,0.42980745483272315,1791554364196612070
-0.07143640518188477,0.005274295806884766,0.39087817258088,1791554364227689924
0.1483626365661621,-0.21730202436447144,0.423590694697029,1791554364257679948
-0.13724088668823242,0.45722073316574097,0.42883972896507405,1791554364287759180
0.10115021467208862,0.25402355194091797,0.429192067733795,1791554364317747451
-0.1493125557899475,-0.30454814434051514,0.40143289841404883,1791554364349236782
0.24526375532150269,0.32151538133621216,0.4002396486363268,1791554364380924367
-0.12450462579727173,0.016605913639068604,0.47614780031964044,1791554364407897430
0.07131671905517578,0.11738502979278564,0.4116512621249371,1791554364437899746
-0.06428420543670654,0.2685573101043701,0.4251253720666469,1791554364468219269
-0.20418459177017212,0.049768149852752686,0.45378364971505264,1791554364497439289
0.35749632120132446,0.11234438419342041,0.40804180286709374,1791554364528029816
-0.0009969472885131836,-0.05198699235916138,0.41510491707190317,1791554364558035680
0.07086950540542603,0.20666563510894775,0.3998145344320689,1791554364589679876
-0.04826456308364868,-0.10895031690597534,0.44805994829407714,1791554364620548569
0.33225637674331665,0.13301128149032593,0.4619156743120196,1791554364648233041
-0.07901328802108765,0.11620151996612549,0.38469595382799854,1791554364688562783
-0.1781720519065857,0.07351821660995483,0.3899768376726547,1791554364718214834
0.1566794514656067,0.059525370597839355,0.42098877802620105,1791554364749381335
0.23996174335479736,0.15336579084396362,0.429287932818162,1791554364782072121
-0.4408109784126282,-0.132146418094635,0.47018389218870776,1791554364808447862
0.19280529022216797,0.040061354637145996,0.4207987702103566,1791554364838591407
-0.06131434440612793,0.3603212237358093,0.40912168174490826,1791554364868468045
-0.05720120668411255,-0.11984497308731079,0.3986577408063161,1791554364898491816
0.47852665185928345,0.07337015867233276,0.4377147121246084,1791554364928597350
-0.2734561562538147,0.21323484182357788,0.4295239802658862,1791554364958668760
0.06891989707946777,-0.07880204916000366,0.4149681478102057,1791554364989379668
-0.2806362509727478,-0.11893755197525024,0.3894806033177445,1791554365020337528
0.2244328260421753,0.06148064136505127,0.4339075050224759,1791554365049005399
-0.025495827198028564,0.1398637890815735,0.4617718758314738,1791554365077699144
-0.17916494607925415,-0.07911831140518188,0.3915725951550659,1791554365108692872
0.19473201036453247,0.017092466354370117,0.4155188293325858,1791554365138727825
-0.05571502447128296,0.18545663356781006,0.39564094335126454,1791554365168837308
-0.05761831998825073,-0.0479964017868042,0.38562295159588056,1791554365198759571
-0.008337676525115967,0.16051524877548218,0.4011957439273285,1791554365229726591
-0.16265010833740234,-0.024981975555419922,0.3896045233386257,1791554365260325023
-0.028858423233032227,-0.03488922119140625,0.4457357405909931,1791554365288965760
0.10780411958694458,0.40473973751068115,0.4106481692959148,1791554365318956998
0.2897607088088989,-0.11711293458938599,0.41158660613759535,1791554365348979975
-0.08847165107727051,-0.22429335117340088,0.4372557232641221,1791554365379176391
-0.3380082845687866,0.42614394426345825,0.43706924467252917,1791554365409243274
0.5121299624443054,-0.0009830594062805176,0.418561546267626,1791554365439155562
-0.2797967791557312,-0.05698251724243164,0.4025513088952914,1791554365469304857
0.39216721057891846,0.17709124088287354,0.40933756410365074,1791554365501633917
-0.25303739309310913,0.22867649793624878,0.4734240261842019,1791554365529592950
-0.10132330656051636,-0.21885430812835693,0.4116688886491808,1791554365559359131
0.1793387532234192,0.2152719497680664,0.3845494790820781,1791554365589235261
0.23379677534103394,0.2308233380317688,0.38136886452973245,1791554365619260082
0.042668282985687256,-0.13132423162460327,0.40093512297985623,1791554365649636357
-0.41054797172546387,0.1136782169342041,0.4079195096933502,1791554365678346419
-0.06785613298416138,-0.004659116268157959,0.37858380731016616,1791554365709587987
0.12851953506469727,0.08486372232437134,0.40277215890164003,1791554365742072551
0.03659796714782715,0.2856214642524719,0.4870028048401462,1791554365769510204
0.018850624561309814,-0.0941932201385498,0.43584624291649693,1791554365799487626
0.27366864681243896,-0.052891552448272705,0.40764707677203615,1791554365829896368
-0.1528511643409729,0.27610528469085693,0.4163759389506359,1791554365859552589
-0.029568850994110107,-0.055200040340423584,0.4188713692377587,1791554365889594791
0.14681082963943481,0.027819931507110596,0.3960708697596977,1791554365919871573
-0.0963360071182251,0.3696572184562683,0.4365970226229961,1791554365949664075
-0.01698911190032959,-0.36947619915008545,0.40284332479673907,1791554365981627207
0.14512819051742554,0.26567381620407104,0.3916018009791574,1791554366011766843
-0.024771928787231445,0.15369248390197754,0.42156279331499846,1791554366040200786
-0.13736414909362793,0.1526908278465271,0.39532502288728844,1791554366069930674
0.20048832893371582,0.009444832801818848,0.4175812919744795,1791554366100046265
-0.05542588233947754,0.2499597668647766,0.4153005739973058,1791554366129887389
0.13389724493026733,0.024484455585479736,0.3845590325313814,1791554366159938398
-0.36157655715942383,-0.3176080584526062,0.3933353322471884,1791554366190050270
0.19777482748031616,0.3635365962982178,0.39832267979907143,1791554366220358324
0.09981429576873779,0.023376524448394775,0.3936309313917782,1791554366252532690
0.08778935670852661,0.010479927062988281,0.4279297015385642,1791554366280103320
-0.19406425952911377,0.03241461515426636,0.40927275294152726,1791554366310105090
0.14485669136047363,-0.006084799766540527,0.39996881292030034,1791554366340248622
-0.1735132932662964,0.25921517610549927,0.38965016578338035,1791554366370206509
0.5763826370239258,0.1976456642150879,0.4132599723235261,1791554366400208144
-0.44315797090530396,-0.31774187088012695,0.42950644317557024,1791554366429363509
0.2548092007637024,0.08219784498214722,0.40085564464777834,1791554366461385548
-0.20266228914260864,0.20039772987365723,0.4030443827107156,1791554366493674493
0.029256165027618408,-0.010792851448059082,0.41739786879740215,1791554366521018520
0.08207595348358154,0.03645622730255127,0.3996394401368246,1791554366551026990
0.020432233810424805,-0.3011783957481384,0.348338452963717,1791554366574075623
0.032451629638671875,0.05247044563293457,0.439131914035622,1791554366610980459
-0.1519201397895813,0.13312530517578125,0.4021701629547761,1791554366641073747
0.06025439500808716,0.07097017765045166,0.39363602321591534,1791554366671035516
0.24347370862960815,-0.09302467107772827,0.41101438604319473,1791554366701783038
0.13587087392807007,0.2585270404815674,0.37478593547375744,1791554366734588504
-0.3699929118156433,-0.02459484338760376,0.40344712645585046,1791554366791082552
0.4372735619544983,-0.030882954597473145,0.36650312546982194,1791554366821145213
-0.20421653985977173,0.025189638137817383,0.41315054445354366,1791554366850689607
0.07059359550476074,0.030847132205963135,0.40636872432051674,1791554366880818412
0.20564454793930054,0.33861684799194336,0.4219312350568188,1791554366910822084
-0.32306236028671265,-0.11805063486099243,0.38480661381175396,1791554366941747987
-0.1466752290725708,-0.11113172769546509,0.38025184293225256,1791554366973945515
0.02874821424484253,0.3235675096511841,0.44536334528877747,1791554367000997650
-0.07907509803771973,0.08569741249084473,0.3852516387853445,1791554367031126316
0.03114902973175049,-0.17826998233795166,0.4127219894472073,1791554367061058029
-0.03971576690673828,0.3220441937446594,0.4004421664411483,1791554367091064206
0.04236924648284912,0.32093584537506104,0.3854471021372215,1791554367121241210
-0.13480526208877563,-0.18587756156921387,0.39866790803164337,1791554367151086313
0.05291867256164551,-6.23464584350586e-05,0.39930819670828027,1791554367181503253
0.0657949447631836,0.004600942134857178,0.3847451820956111,1791554367214158373
-0.006602585315704346,0.29465681314468384,0.43510025197421964,1791554367241291153
0.16841959953308105,0.14333093166351318,0.40496016674191354,1791554367271261872
-0.0039198994636535645,-0.3613928556442261,0.3633020949979535,1791554367293803227
0.013582348823547363,0.11271107196807861,0.42880747790533785,1791554367331267826
0.18896490335464478,0.37527215480804443,0.4232822959340304,1791554367360342198
-0.29414480924606323,-0.13948273658752441,0.3886841424178591,1791554367390348424
0.04863852262496948,-0.0734216570854187,0.37245195656327723,1791554367422067869
-0.16313821077346802,0.16183876991271973,0.3955668942516753,1791554367453674729
-0.08896112442016602,0.14630305767059326,0.40048686112279724,1791554367551622317
0.15261638164520264,-0.009601056575775146,0.40026889737777605,1791554367581755198
-0.00559312105178833,0.2568795680999756,0.3518542905307302,1791554367613662500
0.002929508686065674,0.04909414052963257,0.4162532267139105,1791554367641800422
-0.14510726928710938,0.17040079832077026,0.3922602165433329,1791554367671708522
-0.1422150731086731,0.2367473840713501,0.40403620636162113,1791554367761777418
0.01815032958984375,-0.21898388862609863,0.4145224959334209,1791554367791775519
-0.2223009467124939,0.31110167503356934,0.38558240119541226,1791554367821872514
-0.05520862340927124,0.03299140930175781,0.3506113732807735,1791554367854125615
-0.3229905962944031,-0.11114919185638428,0.3818464938098325,1791554367884707378
0.011991441249847412,0.26107537746429443,0.4343559011793796,1791554367912058219
0.2022915482521057,-0.009158790111541748,0.422214292636081,1791554367941979321
-0.4826701283454895,-0.0033410191535949707,0.3818575344338781,1791554367972018580
0.3954593539237976,0.29410815238952637,0.38808642921406933,1791554368002060430
-0.392242968082428,-0.055095374584198,0.39623250640928287,1791554368032068350
0.16281723976135254,0.025493860244750977,0.3919810136309568,1791554368062134486
0.49988681077957153,0.18240535259246826,0.4046976188495362,1791554368094033802
-0.4308431148529053,-0.1340845823287964,0.36058117224280917,1791554368125298926
0.46345192193984985,0.10023343563079834,0.4168196883893704,1791554368152414561
-0.248601496219635,0.19295144081115723,0.3613729124561422,1791554368182600465
0.29466819763183594,-0.0789787769317627,0.33271396479229715,1791554368205191184
0.05584174394607544,0.06544280052185059,0.46185082641584974,1791554368232441906
-0.2846500873565674,0.552879273891449,0.40876579301886135,1791554368261365355
0.3262702226638794,-0.211309015750885,0.31094157888390694,1791554368285887744
-0.27808642387390137,0.2978307008743286,0.43295011499358044,1791554368312846616
0.4245763421058655,0.07586562633514404,0.3890231240435999,1791554368342459738
-0.036038339138031006,-0.16474086046218872,0.40214957159178794,1791554368382751424
0.04598653316497803,0.04068857431411743,0.39712708983286527,1791554368413721296
-0.25899070501327515,-0.021993935108184814,0.40142804252085695,1791554368445634570
-0.06468552350997925,0.1739438772201538,0.4387005677901228,1791554368472712483
-0.2505459189414978,0.20950746536254883,0.38417806834197743,1791554368502635525
0.12936657667160034,-0.1593528389930725,0.3959092450539842,1791554368542685883
-0.20043635368347168,-0.008559942245483398,0.365415320638296,1791554368573727607
0.10887521505355835,0.08746379613876343,0.34945867934947433,1791554368605734534
-0.0541841983795166,0.3209185004234314,0.4061556545185,1791554368632893391
0.1716204285621643,-0.18345791101455688,0.3935517939456471,1791554368662822287
-0.1466439962387085,0.13038676977157593,0.3401853829208101,1791554368686249377
-0.01445692777633667,0.6119164228439331,0.4330205957704591,1791554368722921438
-0.02856898307800293,-0.2557157278060913,0.3849452591797096,1791554368752891799
-0.18151885271072388,-0.023634612560272217,0.37138476803504666,1791554368782950520
0.030194520950317383,0.2940993905067444,0.37052936982340773,1791554368814478634
-0.1575031280517578,-0.0239640474319458,0.3670782940712079,1791554368845635114
0.24832701683044434,0.0544666051864624,0.4391511124201603,1791554368873140865
-0.15523791313171387,0.04349797964096069,0.40106769132561904,1791554368903121114
0.0725448727607727,-0.0730752944946289,0.38100919669703415,1791554368933132064
-0.2222331166267395,0.19898879528045654,0.39995431007096865,1791554368962402522
-0.1494033932685852,0.12347543239593506,0.38181419064774896,1791554368993184843
0.08644455671310425,-0.12270855903625488,0.4095512039993351,1791554369023246940
-0.0236169695854187,0.30867934226989746,0.39462069513515396,1791554369053790205
0.1500510573387146,0.01442652940750122,0.3405988717068704,1791554369085618727
-0.06796109676361084,-0.3077405095100403,0.4100536049023195,1791554369113417570
0.12091290950775146,0.4884183406829834,0.3950056769309028,1791554369143387319
-0.14302051067352295,-0.11309611797332764,0.3966887220372681,1791554369173408345
0.26016056537628174,-0.0230826735496521,0.362960322526806,1791554369203520777
0.1513655185699463,0.2753661274909973,0.39731020478946755,1791554369233501027
0.18178290128707886,0.2030702829360962,0.3845152817296446,1791554369263854714
-0.2586144208908081,-0.07365459203720093,0.36939456885704536,1791554369293730678
0.07392126321792603,0.09628927707672119,0.36140743729520164,1791554369326605995
-0.5652362704277039,-0.053406357765197754,0.3884176967915237,1791554369355732050
0.29390448331832886,0.04787731170654297,0.4298017216814463,1791554369383675403
-0.21144133806228638,0.45719921588897705,0.3818936881393947,1791554369413896347
-0.09120810031890869,-0.018534839153289795,0.34274642157688784,1791554369436157629
0.058996379375457764,-0.042510271072387695,0.4209542985998104,1791554369473769482
-0.15077489614486694,0.3553807735443115,0.37771031818841533,1791554369503784153
0.20108020305633545,-0.04772728681564331,0.3876882072335382,1791554369533942297
-0.21752315759658813,0.08490222692489624,0.3334930983524261,1791554369565925816
0.439555287361145,0.09412205219268799,0.3872419595696165,1791554369595702771
-0.12586665153503418,-0.22984528541564941,0.41636283826459386,1791554369624010380
0.30324262380599976,-0.05433458089828491,0.36811656992436187,1791554369664173891
-0.20193970203399658,0.1817452311515808,0.35309480403224547,1791554369694045277
-0.015804946422576904,0.132032573223114,0.33279626107982846,1791554369725714437
-0.1823108196258545,0.08803290128707886,0.3815685232891372,1791554369756824085
-0.010152697563171387,0.14606469869613647,0.4214840087925982,1791554369784218050
-0.07270056009292603,0.032019734382629395,0.39007196895315155,1791554369814153398
-0.16447573900222778,-0.10747337341308594,0.3688214347922616,1791554369844296780
0.2608383297920227,0.2797524929046631,0.3917551710508142,1791554369874227861
0.20766252279281616,-0.026737451553344727,0.4099373324928181,1791554369904528393
0.05524003505706787,-0.07637220621109009,0.3964688842100854,1791554369934300257
-0.14738798141479492,0.24533796310424805,0.37656012128918526,1791554369966057105
0.22245573997497559,-0.07949495315551758,0.33914817242126655,1791554369997901141
-0.10029053688049316,-0.16381001472473145,0.3892294506784199,1791554370034430261
-0.24656230211257935,0.25835347175598145,0.36217538326253573,1791554370064454035
-0.40324175357818604,0.07424908876419067,0.396696065740425,1791554370094497346
-0.10443681478500366,-0.3003699779510498,0.37947413423014736,1791554370125918343
-0.18745416402816772,0.4095551371574402,0.3366998199765735,1791554370158530085
0.26466161012649536,0.15045064687728882,0.4036388740536617,1791554370184643447
0.09534507989883423,-0.1515623927116394,0.3659340910389988,1791554370214843348
-0.21236342191696167,0.1838884949684143,0.39183052389591133,1791554370244779963
-0.14973199367523193,-0.1790405511856079,0.38097601053903873,1791554370274889017
0.023606598377227783,-0.04733121395111084,0.3451516663471718,1791554370317720925
0.19665974378585815,-0.030717909336090088,0.4203165585684061,1791554370344824936
-0.03184992074966431,0.3460763692855835,0.3789281145169482,1791554370375003929
-0.1536170244216919,-0.28207099437713623,0.39079230430365963,1791554370404839011
-0.24109876155853271,0.21095991134643555,0.38436289535565926,1791554370425292296
-0.13335424661636353,0.043028950691223145,0.3884086318025959,1791554370454891091
-0.21264570951461792,-0.25920921564102173,0.3732075421636989,1791554370485215282
-0.018104135990142822,0.5439612865447998,0.37308492505665064,1791554370513992208
-0.2719818353652954,-0.1978735327720642,0.3604029439792367,1791554370545022956
-0.0937662124633789,-0.030781149864196777,0.3855065684385501,1791554370575022082
0.16203057765960693,0.25208210945129395,0.38442013524878227,1791554370606319287
-0.18390488624572754,0.07907319068908691,0.34446280801431906,1791554370637663476
-0.16785138845443726,0.026214957237243652,0.3811740474602425,1791554370665242289
-0.0011496543884277344,-0.15802347660064697,0.38028758945019797,1791554370695165957
-0.06644308567047119,0.133112370967865,0.32557739500781846,1791554370717592719
0.11715137958526611,0.2520195245742798,0.3926091135226521,1791554370755246277
-0.3975849747657776,-0.036836981773376465,0.3606365942485209,1791554370785366348
0.10529249906539917,-0.1762978434562683,0.36922942943230647,1791554370815492411
-0.018298983573913574,0.11577630043029785,0.38655822493320696,1791554370845746584
-0.18294107913970947,0.099761962890625,0.34696285106257974,1791554370877670624
0.22279202938079834,0.10409265756607056,0.40718146190062293,1791554370905933681
-0.3351730704307556,0.17359358072280884,0.36116407636616227,1791554370935563283
0.2781151533126831,-0.19785988330841064,0.38554430288987296,1791554370965550883
-0.06272274255752563,0.009232163429260254,0.38772764576907504,1791554370996196441
0.29341936111450195,0.4248558282852173,0.3709642284361157,1791554371026231686
-0.3004663586616516,-0.062387168407440186,0.37662943040273444,1791554371056258681
-0.08266657590866089,-0.037209272384643555,0.34067137374220985,1791554371086289589
0.12673377990722656,0.14273375272750854,0.3525416738546829,1791554371118462835
-0.312130331993103,0.03622925281524658,0.34946947973970355,1791554371149182540
0.15890628099441528,0.16169112920761108,0.39029090171926883,1791554371185348266
-0.3563188910484314,0.1789838671684265,0.34818372358107474,1791554371216397776
0.3817828893661499,-0.09618604183197021,0.4069754428351531,1791554371245339250
0.1627921462059021,0.04510366916656494,0.36634907456957455,1791554371277782393
0.21993541717529297,0.1292964220046997,0.3840772857920908,1791554371308160804
-0.24440181255340576,0.0903577208518982,0.41289827270023405,1791554371336433893
-0.09331196546554565,-0.1722879409790039,0.36935761168527387,1791554371365363401
0.1881197690963745,0.19328397512435913,0.3482189001842063,1791554371395344618
-0.34015339612960815,0.06323564052581787,0.36709819336748123,1791554371426368214
-0.0993838906288147,-0.14481931924819946,0.38355820700866344,1791554371456506389
-0.2772866487503052,0.4333416223526001,0.36984484836628445,1791554371486422861
0.0497053861618042,-0.11327916383743286,0.3312332676636205,1791554371517852856
-0.05876356363296509,-0.2639862895011902,0.3670321720436891,1791554371548626705
0.13953423500061035,0.520650327205658,0.40350599760953654,1791554371576942765
-0.03070509433746338,0.11200219392776489,0.3785544115879938,1791554371606456571
-0.1882486343383789,-0.24783486127853394,0.3635523786378624,1791554371636562481
0.12091583013534546,0.3084598779678345,0.3470801967366759,1791554371666492960
0.02101576328277588,-0.09188449382781982,0.3490557638947793,1791554371696475470
0.05720853805541992,0.21673941612243652,0.3366779124404891,1791554371726593176
-0.0820731520652771,0.06996601819992065,0.36505474420595635,1791554371758266179
-0.0991167426109314,-0.12614595890045166,0.34964394930556975,1791554371790070792
0.022039353847503662,0.2779797911643982,0.42012206965762533,1791554371816683485
-0.3796008825302124,0.12082898616790771,0.35050017106908715,1791554371846871323
-0.08250963687896729,-0.15932238101959229,0.3494008726001687,1791554371876823030
0.15893083810806274,0.20274841785430908,0.4041990070351789,1791554371906671296
-0.13246607780456543,0.3213126063346863,0.3625872548493486,1791554371936859252
-0.3138055205345154,-0.45159298181533813,0.3553353269264993,1791554371966659576
-0.2381676435470581,0.38096630573272705,0.34804269005892413,1791554371998013021
0.2807192802429199,0.3755660653114319,0.3562056806178122,1791554372029682446
0.09240561723709106,-0.15773487091064453,0.405490444620112,1791554372057277231
-0.339263916015625,-0.022497177124023438,0.37982658401796615,1791554372086758518
0.16918230056762695,-0.00018388032913208008,0.38907440971783824,1791554372116951995
-0.43305790424346924,0.30879706144332886,0.3500224100531679,1791554372146833211
0.4836263656616211,0.21958237886428833,0.33112978799914755,1791554372176822869
-0.41780519485473633,-0.12043261528015137,0.34871356468235215,1791554372206854872
0.36111944913864136,0.21718823909759521,0.35190477253327396,1791554372237995275
-0.005502581596374512,0.013445019721984863,0.3926119345138418,1791554372270372631
-0.41178011894226074,-0.12362420558929443,0.4243172591430973,1791554372297251836
0.37696772813796997,-0.3509748578071594,0.34134186555771207,1791554372336047812
-0.13107967376708984,0.27654582262039185,0.3212776544997842,1791554372367417051
0.23166406154632568,0.17383575439453125,0.396799700325355,1791554372398119740
-0.7761387228965759,0.10005944967269897,0.3532646933367748,1791554372429990788
0.8348183035850525,0.04337418079376221,0.3807189800329001,1791554372457300516
-0.385265052318573,-0.23476344347000122,0.36180136092123505,1791554372487298571
0.6042221188545227,0.14293509721755981,0.3389598937992565,1791554372517222827
-0.26993411779403687,0.3410080671310425,0.3638467463633504,1791554372547296184
-0.24416619539260864,-0.09624642133712769,0.3304421794786081,1791554372577605596
0.021232426166534424,-0.1985377073287964,0.3579586383141463,1791554372607481110
-0.32499265670776367,0.34313374757766724,0.35327380249396756,1791554372637695808
0.3900577425956726,0.026996076107025146,0.32762692571774055,1791554372670027195
-0.05560094118118286,0.02916693687438965,0.37961193412274,1791554372697526289
-0.149139404296875,-0.11774307489395142,0.3605586330037821,1791554372727508031
0.23148250579833984,0.1956985592842102,0.369316229107037,1791554372757732294
-0.0462910532951355,0.18835175037384033,0.3442037541075686,1791554372787632623
-0.0621301531791687,-0.14017754793167114,0.3624514101247371,1791554372817571846
0.0966794490814209,0.10410714149475098,0.3625470672958564,1791554372847647091
0.12038940191268921,0.5078592300415039,0.35296267564883094,1791554372877760699
-0.03322446346282959,-0.02692931890487671,0.3752939893989518,1791554372937993352
0.06461942195892334,0.21790540218353271,0.395136348041242,1791554372967779477
-0.10339045524597168,0.014471828937530518,0.38512282232130796,1791554372997806628
0.24298715591430664,0.034384071826934814,0.3614717635142483,1791554373027833574
-0.12024390697479248,0.008425533771514893,0.34165255375435993,1791554373057881801
0.25981998443603516,0.056791722774505615,0.3416151067825262,1791554373088311325
-0.027611732482910156,0.11653053760528564,0.35397597239382683,1791554373117939178
-0.22888481616973877,0.06207078695297241,0.321271795512567,1791554373149722332
0.20075994729995728,-0.09758132696151733,0.34470643193332656,1791554373180578178
-0.29362159967422485,0.09540742635726929,0.3830584861160616,1791554373208051313
0.26158571243286133,0.3878129720687866,0.3422087955242154,1791554373238057932
0.0491676926612854,-0.2541620135307312,0.3522157813210367,1791554373268120976
0.24790745973587036,0.16655802726745605,0.35491419031352267,1791554373298153233
-0.05177152156829834,0.020078420639038086,0.3681589274879725,1791554373328222910
-0.0388033390045166,0.23738431930541992,0.3185785581155029,1791554373358461987
0.11970233917236328,0.006300806999206543,0.31989766190332436,1791554373389804723
-0.1576690673828125,-0.028724730014801025,0.33917789659250863,1791554373421755966
0.2640143036842346,0.010525107383728027,0.43666321298464916,1791554373448472696
-0.14624762535095215,-0.020989954471588135,0.35299382858634126,1791554373488565541
0.11927527189254761,0.22782623767852783,0.33712185547538576,1791554373518499380
-0.11408007144927979,0.07164984941482544,0.33221487413678696,1791554373550192996
0.49742692708969116,0.22069936990737915,0.322828038449745,1791554373581800914
0.001124739646911621,0.10512834787368774,0.42052528516398785,1791554373608597349
-0.2322346568107605,-0.1687706708908081,0.3338946688427706,1791554373638581818
0.07666629552841187,0.24353599548339844,0.36201902555516935,1791554373668600078
-0.19408947229385376,0.27345359325408936,0.34304630349500076,1791554373698573907
0.13136911392211914,-0.1734098196029663,0.3421483295671329,1791554373728860567
0.2562042474746704,0.2610670328140259,0.3549628877534512,1791554373758723407
-0.576803982257843,-0.01795661449432373,0.32823656543426305,1791554373789805562
0.5350770354270935,-0.14212173223495483,0.3645432749591404,1791554373821753939
-0.6853508949279785,0.5167647004127502,0.390990572817701,1791554373848325701
0.7293879985809326,-0.2145363688468933,0.32339004034209234,1791554373878839170
-0.3686322569847107,-0.022526323795318604,0.3594349714331832,1791554373908846130
0.1422405242919922,0.086514413356781,0.375987462479097,1791554373938960548
-0.13127833604812622,0.09238284826278687,0.37605247251887863,1791554373969017950
-0.037763118743896484,-0.01040041446685791,0.3297943249424234,1791554373998958032
-0.16028058528900146,0.138749897480011,0.33229317816328213,1791554374030093777
-0.02327132225036621,0.13882124423980713,0.33930033126535325,1791554374061337692
0.4415566921234131,0.2050756812095642,0.424843099017175,1791554374089128934
-0.2757192850112915,-0.01699429750442505,0.36312518287706763,1791554374119628977
0.29476362466812134,-0.16585040092468262,0.36473481102939315,1791554374148155803
0.167791485786438,0.30811846256256104,0.34088684817707077,1791554374168551665
-0.2969855070114136,-0.006792426109313965,0.2988202312961694,1791554374199816422
0.19718647003173828,0.12461656332015991,0.342961537116591,1791554374229230442
0.1036408543586731,0.008447408676147461,0.37588445680655025,1791554374258349901
0.26105552911758423,0.04040515422821045,0.3353914541837631,1791554374289309646
0.0795087218284607,0.15062326192855835,0.3506814471405361,1791554374318325451
-0.23594003915786743,-0.034296393394470215,0.32086991760174044,1791554374350507468
0.4091609716415405,0.19694894552230835,0.3476143142063167,1791554374382212166
-0.1561698317527771,0.20379942655563354,0.3962158341353423,1791554374409560343
0.15124690532684326,-0.1288633942604065,0.3604341880446029,1791554374439466915
0.12282806634902954,-0.03780972957611084,0.36759939392752466,1791554374469643995
0.070304274559021,0.46835631132125854,0.35342352120036546,1791554374499543426
-0.4392128586769104,-0.381969690322876,0.3466783270945104,1791554374529587479
0.501546323299408,0.29162371158599854,0.341508133421821,1791554374559604237
-0.3498554229736328,0.4447733759880066,0.34432239069904214,1791554374590133056
-0.054781198501586914,-0.4447631239891052,0.32277573393087305,1791554374621946354
0.13246268033981323,0.22192221879959106,0.37559732946417634,1791554374649802321
0.025572478771209717,0.031905174255371094,0.3515808025611986,1791554374679854478
0.03556931018829346,-0.07954984903335571,0.33150056077206247,1791554374709791040
0.15541821718215942,0.34743034839630127,0.34574813057365683,1791554374740031397
-0.13584744930267334,0.02235245704650879,0.3346690977165745,1791554374769878745
0.1311435103416443,0.005534708499908447,0.3214308090880712,1791554374799888115
-0.18814951181411743,0.15575432777404785,0.34334294576328184,1791554374829368624
0.39528393745422363,0.0802261233329773,0.33876503753649323,1791554374862179299
0.22074836492538452,0.03252577781677246,0.38658626312507355,1791554374890085890
-0.29849058389663696,0.014183998107910156,0.3365709498541544,1791554374919999227
0.21838289499282837,0.027416884899139404,0.3575907285604326,1791554374950095165
0.07613617181777954,0.339272677898407,0.3456202950299156,1791554374980134814
0.025757253170013428,0.23496413230895996,0.3537660437038278,1791554375010387954
-0.5606531500816345,-0.1364496946334839,0.34793251016938126,1791554375040140681
0.2409561276435852,-0.10634946823120117,0.34510249094777473,1791554375070277614
0.14699327945709229,0.3991674780845642,0.33417535303004936,1791554375101934806
-0.24441635608673096,-0.08066099882125854,0.30946383199202687,1791554375133236382
0.10296612977981567,-0.22019118070602417,0.3868490256727473,1791554375170386265
-0.2223023772239685,0.3663400411605835,0.335956146521998,1791554375200510721
0.3424672484397888,-0.0061299800872802734,0.3578960144477176,1791554375230781225
-0.15548819303512573,0.0758054256439209,0.3098374511984438,1791554375262130037
0.30040156841278076,-0.07075750827789307,0.33840007129995126,1791554375292977146
-0.3975870609283447,0.22309178113937378,0.3864538029336105,1791554375320570132
0.538453996181488,0.1797713041305542,0.34076695010454233,1791554375350541332
0.047614872455596924,-0.1375710368156433,0.30536339186041933,1791554375373391184
-0.1425487995147705,-0.03777891397476196,0.3470745934814754,1791554375410881540
0.0033904314041137695,0.34899967908859253,0.35970965038472374,1791554375440634305
-0.11608749628067017,-0.018475472927093506,0.3647923442786016,1791554375470697878
0.3219761252403259,-0.004846811294555664,0.34717771558698163,1791554375501848948
-0.3170245885848999,0.11711108684539795,0.33301577462342574,1791554375533748236
0.30056679248809814,0.30555295944213867,0.3561756677198684,1791554375571474536
-0.3514886498451233,-0.0801088809967041,0.33293009458305367,1791554375601537882
0.566979706287384,0.17266327142715454,0.3452010969554682,1791554375631624119
-0.12892603874206543,0.18903815746307373,0.3703504218161658,1791554375661485068
-0.07929885387420654,-0.12870198488235474,0.30077044766316574,1791554375694072655
-0.01585322618484497,0.2662737965583801,0.3396676720436083,1791554375721560086
-0.09129190444946289,0.06219202280044556,0.32276712392151147,1791554375751563324
0.4285886287689209,0.003170192241668701,0.30658433447793526,1791554375774441302
-0.09037792682647705,-0.12439537048339844,0.4098227557327377,1791554375801168953
0.03772825002670288,0.046294987201690674,0.34618677101625006,1791554375841188695
-0.23196536302566528,-0.055825650691986084,0.3370287365051325,1791554375871182197
0.1391007900238037,0.34360313415527344,0.31729923918250813,1791554375901871903
-0.041176676750183105,-0.04122042655944824,0.3177636301912467,1791554375934525380
0.08676373958587646,0.07776123285293579,0.4038661462730485,1791554375960300086
-0.11333972215652466,0.07314091920852661,0.3536986706751269,1791554375991390473
-0.3131182789802551,-0.15703105926513672,0.36498672039854785,1791554376020326103
0.08531367778778076,0.001656949520111084,0.33839920966197135,1791554376081593472
-0.14400190114974976,0.12895095348358154,0.34241993762225553,1791554376121600442
-0.015488922595977783,0.05223304033279419,0.3413443726924025,1791554376161660338
0.0230104923248291,-0.10945171117782593,0.3120666769705109,1791554376191608427
-0.12591201066970825,-0.048313140869140625,0.32579051638640083,1791554376221977419
0.16829150915145874,0.1434304118156433,0.3205266389896679,1791554376254187420
0.2596544623374939,0.08756595849990845,0.38125109943808594,1791554376281672044
-0.08764666318893433,0.17510974407196045,0.3129075711338696,1791554376321681289
0.11478066444396973,-0.13219475746154785,0.3491101690336149,1791554376351772608
-0.1379939317703247,0.36859047412872314,0.3213617767049551,1791554376382498125
0.0837327241897583,-0.03298276662826538,0.32565463666566724,1791554376414189101
-0.30515438318252563,-0.062412261962890625,0.36204694226569706,1791554376441837831
0.0005908608436584473,0.22435015439987183,0.3244465289466156,1791554376472551895
0.02099454402923584,-0.1289273500442505,0.34275535022258524,1791554376502195529
-0.32697004079818726,0.12403231859207153,0.3235404826766311,1791554376532103524
0.2822323441505432,0.30798953771591187,0.34207294642082464,1791554376561946325
-0.44037115573883057,0.24291867017745972,0.32200576902702904,1791554376592236916
0.26657193899154663,-0.25024306774139404,0.339430778092035,1791554376622797531
-0.3264313340187073,0.4487854242324829,0.3240819822714488,1791554376654157644
0.59381103515625,-0.00935816764831543,0.33387557563055986,1791554376682185804
-0.31601136922836304,-0.15384304523468018,0.33935229057964095,1791554376712098053
-0.3478034734725952,-0.0018593072891235352,0.30028624086808187,1791554376733358107
0.3627901077270508,0.11528611183166504,0.3470820865566201,1791554376763872141
-0.37876319885253906,0.27271568775177,0.3448881037219638,1791554376792379920
0.17031121253967285,-0.1469547152519226,0.32455541978722335,1791554376822234283
-0.04711318016052246,0.021701395511627197,0.3650535466181923,1791554376851519750
0.31239843368530273,0.12497025728225708,0.3607686422014605,1791554376881519829
0.14759820699691772,-0.21443337202072144,0.3396400127223222,1791554376911347542
-0.2780647277832031,0.04650145769119263,0.3068751460392172,1791554376942718878
0.14044398069381714,0.25188881158828735,0.3186992226168228,1791554376974430828
-0.08835339546203613,-0.04178762435913086,0.3076295833219303,1791554377005130217
0.21754181385040283,0.30485963821411133,0.3777541066393771,1791554377032546596
-0.05634784698486328,-0.20551270246505737,0.3578786600041579,1791554377062546199
0.20216232538223267,0.25249141454696655,0.32353764219376896,1791554377092704235
-0.043917715549468994,0.049278855323791504,0.3054662062738831,1791554377123011748
-0.10955840349197388,0.006422460079193115,0.3144587867582329,1791554377152932196
0.1642785668373108,0.01225060224533081,0.35012130912629025,1791554377182690102
-0.2666313052177429,0.3306596875190735,0.3203715303596107,1791554377214237824
0.02543431520462036,-0.08066385984420776,0.30784365595672514,1791554377246151217
-0.1534830927848816,-0.19572842121124268,0.3541034853161983,1791554377272932048
0.1203690767288208,0.25734245777130127,0.3163014855477558,1791554377302807246
0.2285584807395935,0.03969383239746094,0.2809263975955585,1791554377326520023
-0.005576908588409424,0.22186881303787231,0.3665391496009616,1791554377363101457
-0.25330477952957153,-0.12735849618911743,0.3473685743593899,1791554377392941225
0.07628071308135986,0.20015865564346313,0.32482030500340864,1791554377422932995
0.04470926523208618,0.2196422815322876,0.30491119571776926,1791554377454938594
0.03685075044631958,-0.3327369689941406,0.32338538356600044,1791554377486223882
0.027449429035186768,0.3063623905181885,0.3851721519441978,1791554377513178659
0.057716310024261475,0.250163197517395,0.35883110885482306,1791554377543080310
-0.1679282784461975,-0.24799281358718872,0.3208222664321552,1791554377573106365
0.1387416124343872,0.24251437187194824,0.31436343426714036,1791554377603385178
-0.13239836692810059,0.12462466955184937,0.32920638017327947,1791554377633251107
0.25981855392456055,0.08199089765548706,0.376986935413133,1791554377661323076
-0.04800540208816528,0.11719036102294922,0.302821262317285,1791554377694164042
-0.06472402811050415,-0.15047025680541992,0.29158618449409784,1791554377726607476
-0.033210158348083496,0.22865808010101318,0.39769273311608416,1791554377751355663
-0.05948108434677124,0.14562338590621948,0.28068399387290804,1791554377784143936
-0.04895263910293579,0.008755624294281006,0.33373754313853093,1791554377823415802
-0.012802481651306152,-0.12906712293624878,0.3138834871860044,1791554377854700846
0.402177631855011,0.1112181544303894,0.3277805003519021,1791554377886573038
0.0060440897941589355,0.5738192200660706,0.3263171099702428,1791554377923546435
0.22147297859191895,-0.04984229803085327,0.3236694326514232,1791554377953643552
-0.061993420124053955,0.15381687879562378,0.3214473611231065,1791554377983638762
0.1585868000984192,0.26622968912124634,0.35966362854438777,1791554378023727079
-0.14750611782073975,0.23469620943069458,0.32304704063174905,1791554378063709367
0.25637078285217285,-0.1653403639793396,0.31746978085840777,1791554378094715149
-0.39484304189682007,0.20187890529632568,0.289257326662868,1791554378126446529
-0.08538532257080078,-0.07606452703475952,0.31612364009423677,1791554378174464313
0.20056241750717163,0.2139849066734314,0.2953748762130296,1791554378206022129
-0.2822697162628174,-0.05049455165863037,0.3544122145208751,1791554378234040815
0.20392340421676636,0.15794003009796143,0.32982465857006216,1791554378263934156
-0.06600809097290039,0.12322098016738892,0.33202385841521154,1791554378293984149
-0.21175003051757812,-0.06891012191772461,0.27981506904363035,1791554378316178213
0.4485229253768921,0.3547280430793762,0.3470735918375921,1791554378354035248
-0.13071084022521973,-0.046365201473236084,0.3252363346110267,1791554378384298218
0.12175041437149048,-0.02108222246170044,0.31248775530204215,1791554378414517750
0.002863466739654541,0.19362610578536987,0.32352648643823595,1791554378446077121
-0.32919907569885254,-0.07275962829589844,0.32301469804063143,1791554378476428422
-0.07012420892715454,-0.30881744623184204,0.3389928131822212,1791554378514179773
-0.1624932885169983,0.2539520859718323,0.31698153192601985,1791554378544407855
0.27740079164505005,0.10843712091445923,0.34664088917213187,1791554378574294837
-0.21900403499603271,-0.042313456535339355,0.3094112783080561,1791554378606497976
0.20240503549575806,0.24910634756088257,0.3476230775259981,1791554378636137656
-0.1846301555633545,-0.11219626665115356,0.3382980777409928,1791554378674419815
0.021569550037384033,-0.04156506061553955,0.3078092043937209,1791554378704663351
-0.09914696216583252,-0.015866458415985107,0.2966049558048541,1791554378735786366
0.06799399852752686,0.1927313208580017,0.3165934211769588,1791554378766190085
-0.08121597766876221,-0.2009439468383789,0.3128685530822202,1791554378797647016
-0.024956583976745605,0.21610134840011597,0.35621405488386304,1791554378824702004
0.20283383131027222,0.18921726942062378,0.3125237987500007,1791554378854640058
-0.02912735939025879,-0.029236674308776855,0.30065516282513033,1791554378884619376
0.3653146028518677,0.14383691549301147,0.3335063209573652,1791554378914682019
-0.14320659637451172,-0.061406850814819336,0.3200418396064181,1791554378944684419
0.3690459728240967,0.10565167665481567,0.29133478439171834,1791554378974734770
-0.2972383499145508,-0.08182448148727417,0.30068018195854607,1791554379005341450
0.08886450529098511,0.14429014921188354,0.3111152000032015,1791554379037427711
0.14509165287017822,0.11094313859939575,0.38036573779185734,1791554379064969694
-0.1454606056213379,0.0599517822265625,0.31126149161174377,1791554379094888604
0.15936923027038574,-0.1372588872909546,0.34041667885470955,1791554379124950273
0.10559117794036865,0.33329010009765625,0.3196879753377336,1791554379155047279
0.08525866270065308,0.09129995107650757,0.29598627271999534,1791554379175009306
0.05742281675338745,0.0553973913192749,0.30487191375818273,1791554379215142535
0.2470111846923828,0.014099657535552979,0.30975691766931623,1791554379246562426
-0.19476091861724854,-0.19777607917785645,0.3265871319862819,1791554379278050374
0.3896087408065796,0.06283837556838989,0.31887458196492663,1791554379315205811
-0.08663040399551392,0.27202731370925903,0.30265321221638686,1791554379335187184
0.05608177185058594,0.004975259304046631,0.3014382545851187,1791554379375269060
0.28359097242355347,-0.04939013719558716,0.3400052989119724,1791554379406889527
-0.2891770005226135,0.6236448287963867,0.30335898579182013,1791554379438516314
-0.02667289972305298,0.027370035648345947,0.3514715997088147,1791554379474360917
-0.1308220624923706,0.04551011323928833,0.27907406042684796,1791554379505570178
0.35121291875839233,0.10777783393859863,0.342238385276324,1791554379535452698
-0.38290631771087646,0.05324578285217285,0.3220673499974342,1791554379566583184
0.29905933141708374,-0.07010173797607422,0.32052221286106886,1791554379598049774
-0.4587101340293884,0.11907947063446045,0.3717374674716029,1791554379625561334
0.12180483341217041,0.0717848539352417,0.3277858072212735,1791554379655840405
-0.5886427164077759,-0.011489272117614746,0.31644590692861496,1791554379685575952
0.4010049104690552,0.09401178359985352,0.3216393444873152,1791554379715620238
0.9632576107978821,-0.09724092483520508,0.3616747957493647,1791554379745689296
-0.7092195153236389,0.07126927375793457,0.3372424819625639,1791554379775831474
0.5940812230110168,0.6091564297676086,0.31238145757636226,1791554379806288314
-0.3684588074684143,-0.42092299461364746,0.27818888307355355,1791554379838225428
-0.3245939016342163,-0.07952547073364258,0.31798334057554867,1791554379865836228
-0.22328829765319824,0.5919714570045471,0.2785625322990116,1791554379896159469
-0.18668389320373535,-0.11127877235412598,0.3338859865869503,1791554379925840498
0.9098365902900696,0.00791025161743164,0.333720290213918,1791554379955896547
-0.24453115463256836,0.19889754056930542,0.3079763745738882,1791554379986095356
0.2321993112564087,0.2226758599281311,0.3055106641486512,1791554380015933719
-0.29535818099975586,-0.2766450047492981,0.3025059693639825,1791554380046654649
-0.21263742446899414,0.06101024150848389,0.2918932274938465,1791554380079008158
-0.11955934762954712,0.14915311336517334,0.36063152796800313,1791554380106123132
-0.12402743101119995,0.118682861328125,0.30051568498838616,1791554380136739667
0.17822617292404175,-0.08659237623214722,0.3158780289765818,1791554380166684136
0.006307005882263184,-0.13717937469482422,0.2903755233075308,1791554380188205420
0.011995136737823486,0.21042853593826294,0.3282056067374402,1791554380217069454
0.0014380216598510742,0.1289920210838318,0.32833573613450967,1791554380246813326
-0.08391618728637695,0.02193504571914673,0.2996174951229968,1791554380276996900
0.07059180736541748,-0.19608569145202637,0.3190929201629927,1791554380306800803
-0.06780105829238892,0.46130090951919556,0.2981640925144773,1791554380336829784
-0.09303492307662964,-0.22622066736221313,0.30381246314372573,1791554380366800388
-0.15465933084487915,-0.21863961219787598,0.2862025100975147,1791554380399002497
0.2458399534225464,0.38140469789505005,0.32901563021879754,1791554380429107875
0.1652866005897522,0.15068715810775757,0.32018205452602627,1791554380457036090
-0.06931990385055542,-0.16736245155334473,0.31275214993880857,1791554380486784014
0.14547967910766602,-0.18589580059051514,0.3405500864908191,1791554380516832129
-0.16489195823669434,0.35935133695602417,0.3096907537914411,1791554380547078931
0.29955244064331055,0.2537638545036316,0.30180688889148855,1791554380576836918
-0.38860875368118286,-0.30391985177993774,0.2967544670968474,1791554380606889801
0.6149998307228088,-0.029070019721984863,0.3175020936844995,1791554380638536039
-0.1947646141052246,0.38356488943099976,0.3230572655678743,1791554380670172942
0.34199512004852295,-0.13210827112197876,0.35021812707872635,1791554380697000417
-0.12533986568450928,-0.1526678204536438,0.3107636825092039,1791554380726971860
0.003674626350402832,0.39833563566207886,0.28234071823521023,1791554380757190575
0.20920658111572266,-0.2066982388496399,0.3195229243795035,1791554380787102848
0.08916580677032471,0.004100799560546875,0.3015513547215862,1791554380817124924
0.07481932640075684,0.008643090724945068,0.31970070268936324,1791554380847102113
-0.4904294013977051,0.03763294219970703,0.2702293645607504,1791554380878491235
0.41119951009750366,0.13882923126220703,0.2819960535949818,1791554380910902018
-0.35854774713516235,0.12411069869995117,0.34311860185650606,1791554380937499431
0.20768952369689941,-0.06857317686080933,0.30586948856295787,1791554380967075377
-0.26538461446762085,-0.07819432020187378,0.3236614448673979,1791554380997108845
0.08713680505752563,0.08607101440429688,0.30825861466371046,1791554381027118525
0.07635146379470825,-0.030519962310791016,0.3174443249970149,1791554381056403474
-0.08715897798538208,0.06187474727630615,0.2964878783585906,1791554381087181617
0.39840877056121826,0.06683570146560669,0.32149530873078164,1791554381118221180
-0.2993659973144531,0.17871636152267456,0.2945591818151065,1791554381150715727
0.02832859754562378,-0.16247636079788208,0.36680601573888394,1791554381177515717
-0.07521027326583862,0.04583454132080078,0.3268696800340683,1791554381206331721
0.2060834765434265,0.11702239513397217,0.2831754290302357,1791554381247380431
-0.0613178014755249,-0.10780483484268188,0.3038028956826376,1791554381278185149
-0.05055969953536987,-0.04645770788192749,0.30981695557436467,1791554381310555152
-0.14397603273391724,0.2094845175743103,0.3137425331347993,1791554381367515947
0.06553429365158081,0.057934582233428955,0.2980381717996455,1791554381396529898
0.02319854497909546,-0.018642067909240723,0.26836622673482036,1791554381427560200
0.10597187280654907,0.01934075355529785,0.303499798415118,1791554381457616350
0.05764460563659668,0.06147950887680054,0.32025468629788795,1791554381487671436
0.011282205581665039,0.09976106882095337,0.29366976023349256,1791554381518519981
-0.14993935823440552,-0.20115703344345093,0.2876940493867632,1791554381550608770
0.29893314838409424,0.31770753860473633,0.3226398813387192,1791554381578127815
-0.20017719268798828,-0.1735249161720276,0.330805817830722,1791554381607795776
-0.1652039885520935,0.006650805473327637,0.32174248655065735,1791554381637833661
0.49019062519073486,0.2778940200805664,0.3245872107396447,1791554381667879839
0.1372314691543579,0.08834832906723022,0.28907213530538256,1791554381697880315
0.2083796262741089,-0.22661590576171875,0.28020604647449254,1791554381727923651
-0.2623242139816284,0.009234726428985596,0.2909657552041645,1791554381759485237
0.0984150767326355,0.03544563055038452,0.3211723454900457,1791554381790287608
0.13254135847091675,0.12807834148406982,0.33615699661714676,1791554381818100441
-0.12762176990509033,-0.0035632848739624023,0.28677429989854547,1791554381848121801
-0.09850072860717773,-0.05057269334793091,0.31020307149865695,1791554381878073577
-0.11260205507278442,0.42697572708129883,0.29262219308585685,1791554381908121869
0.26613032817840576,-0.13261008262634277,0.2850648515777852,1791554381938172294
-0.3885995149612427,-0.21539121866226196,0.2895105790601928,1791554381968209605
0.36328595876693726,0.28710323572158813,0.3021298895592965,1791554381998612417
-0.3102874755859375,0.08941620588302612,0.29464364779002267,1791554382030391630
0.19648712873458862,0.038584768772125244,0.29009784360084373,1791554382060423202
-0.10748481750488281,-0.019357621669769287,0.35827476704788364,1791554382087388969
-0.07977122068405151,0.11262494325637817,0.30531168067826464,1791554382117415411
0.253942608833313,0.2632768750190735,0.31401964402496,1791554382148493884
-0.44954222440719604,-0.04172158241271973,0.3014501513519368,1791554382178746436
0.2840234041213989,-0.1321149468421936,0.3189435971875475,1791554382208560736
-0.13173514604568481,0.29738277196884155,0.3174342823429293,1791554382238574458
0.06064200401306152,-0.17064470052719116,0.2946668645065485,1791554382270300133
0.20300740003585815,-0.10142821073532104,0.3125371736541681,1791554382301455649
-0.3778982162475586,0.35471487045288086,0.32897026393016027,1791554382328593490
0.11172991991043091,0.07373428344726562,0.2925002892569272,1791554382358686489
0.17514795064926147,0.030240297317504883,0.3042199326016822,1791554382388809543
0.04574024677276611,-0.14313197135925293,0.31621004366062505,1791554382418703138
-0.19395184516906738,-0.024821758270263672,0.28753744020882516,1791554382448740735
0.20318150520324707,0.3280779719352722,0.3076233310946798,1791554382478783298
-0.10587918758392334,4.857778549194336e-05,0.2786230061433484,1791554382510789189
0.11495751142501831,-0.10378777980804443,0.2756888857988879,1791554382542083514
-0.15453964471817017,0.06155741214752197,0.3452089279921325,1791554382568931487
-0.015774130821228027,0.1281556487083435,0.2983718664091273,1791554382598959156
-0.18090224266052246,-0.03475850820541382,0.2872683721376243,1791554382628949670
-0.11679953336715698,0.13301783800125122,0.2790657897853756,1791554382658991889
-0.07900631427764893,-0.021226346492767334,0.33278054018560466,1791554382689017089
0.2024889588356018,0.12399911880493164,0.3393785154265999,1791554382719102488
-0.16440385580062866,0.09692221879959106,0.3076871420242342,1791554382750256421
-0.004724323749542236,-0.13215303421020508,0.2822704297574422,1791554382782286135
-0.16718614101409912,-0.0008023381233215332,0.3161902040320436,1791554382819122271
0.11584585905075073,-0.028893887996673584,0.2872086693553376,1791554382849201931
0.0650758147239685,0.23202615976333618,0.29282963772851917,1791554382879253009
0.047321200370788574,-0.18217653036117554,0.3068357059714457,1791554382909366309
-0.1395559310913086,0.24917340278625488,0.26508437889835734,1791554382942278599
0.06646198034286499,-0.06651335954666138,0.3155291094673392,1791554382969409900
-0.05674320459365845,0.21698486804962158,0.2853433632275707,1791554382999403385
0.019984900951385498,0.054527223110198975,0.3017314701169894,1791554383029675527
-0.0964277982711792,-0.03323066234588623,0.31254110543235275,1791554383059425120
-0.1627759337425232,0.08099180459976196,0.29035735752547737,1791554383089473123
-0.03284299373626709,-0.013880670070648193,0.2850313342242982,1791554383119583396
0.008933842182159424,0.19234687089920044,0.29645959058085714,1791554383150712351
-0.31951069831848145,-0.02149653434753418,0.3440292834109805,1791554383208600789
0.30633801221847534,0.34445708990097046,0.3048231627641983,1791554383239630090
-0.4476466774940491,-0.05853831768035889,0.30177060172720427,1791554383269696633
0.4333910346031189,-0.0639575719833374,0.2850237050323466,1791554383299712640
-0.23712760210037231,0.13980716466903687,0.2782434888152125,1791554383329768470
0.32720333337783813,0.003940880298614502,0.3006937622892508,1791554383359777808
-0.0025398731231689453,-0.14532512426376343,0.3439028017633257,1791554383389357244
-0.2800065875053406,0.0407220721244812,0.2711166864390525,1791554383422269381
0.09137904644012451,0.10970538854598999,0.30256286093322654,1791554383450045848
-0.26382046937942505,0.16903841495513916,0.24707926882992587,1791554383479911359
0.15880733728408813,-0.1941022276878357,0.30059259681383665,1791554383510194994
-0.3892700672149658,0.14683908224105835,0.3320409146822442,1791554383540012588
0.6275843977928162,0.24930036067962646,0.3239077073058858,1791554383570016813
-0.5137881636619568,-0.1065894365310669,0.2991003072815245,1791554383600070107
0.36839306354522705,-0.24345403909683228,0.28431289902344836,1791554383629346016
-0.17399895191192627,0.24835407733917236,0.29466438781399557,1791554383663064622
0.024917542934417725,0.12399172782897949,0.324610213554141,1791554383690254059
0.0449252724647522,0.20421040058135986,0.2834579297705046,1791554383720217290
-0.3996362090110779,-0.2973598837852478,0.2938681706129427,1791554383750229655
0.16928154230117798,0.010837912559509277,0.3057564285862434,1791554383780470210
-0.35782575607299805,0.3097267150878906,0.30171467655440143,1791554383810299839
0.28179287910461426,0.01813638210296631,0.30806545871608726,1791554383839339801
-0.2987710237503052,-0.08354514837265015,0.2982352441980751,1791554383869331839
0.20838147401809692,0.20372265577316284,0.2588532598334162,1791554383902408701
-0.09132182598114014,-0.1416434645652771,0.31346089820782347,1791554383930589162
0.08502024412155151,0.04928481578826904,0.2745183324413117,1791554383960784430
0.12090909481048584,0.10574471950531006,0.2762964938496381,1791554383990863777
-0.24356448650360107,-0.040618717670440674,0.2903934660249643,1791554384020550708
0.37733882665634155,0.2859081029891968,0.31264849194872135,1791554384050636546
0.16286015510559082,-0.023197591304779053,0.2971655234851818,1791554384071099052
0.30764132738113403,0.026247739791870117,0.29771336702329526,1791554384110279679
-0.1294981837272644,-0.21790122985839844,0.2955443683827664,1791554384141546981
-0.10136890411376953,0.16770434379577637,0.2834044489507275,1791554384173040750
0.28610193729400635,0.051164209842681885,0.3227857259985438,1791554384200752489
-0.292087197303772,0.015179276466369629,0.28950552492181814,1791554384230791846
0.2440258264541626,0.18408066034317017,0.26189470512229757,1791554384253382467
0.07304245233535767,0.005948185920715332,0.33336541279564047,1791554384280966550
0.23350846767425537,0.14344054460525513,0.30698157874847437,1791554384310883039
-0.1552644968032837,-0.0449489951133728,0.3127836267356271,1791554384340922054
-0.06123167276382446,-0.03122919797897339,0.2985492815822531,1791554384370968040
0.3196244239807129,0.09921044111251831,0.3062740830827309,1791554384400997494
-0.11057865619659424,0.21636158227920532,0.2790196295510211,1791554384431150052
0.1616719365119934,-0.08050405979156494,0.28044868463881373,1791554384461363012
-0.3013123869895935,-0.04578953981399536,0.2717565665402949,1791554384494371035
0.24272531270980835,0.3434487581253052,0.3548441527111511,1791554384521152214
-0.38736462593078613,0.18563193082809448,0.28423527510729585,1791554384551221992
0.21630942821502686,0.3051289916038513,0.22467899715050177,1791554384574479046
-0.11226546764373779,-0.16629809141159058,0.3270661876768895,1791554384612043382
0.03942221403121948,0.2242962121963501,0.2937457519902443,1791554384641884917
0.11069035530090332,0.32365351915359497,0.2800181253644755,1791554384671932760
-0.28958386182785034,-0.1943972110748291,0.26524843775852347,1791554384702376289
0.45158517360687256,-0.1255365014076233,0.2790105711276855,1791554384734559625
-0.4512035846710205,0.3612446188926697,0.3220114849960432,1791554384761791460
0.3442508578300476,0.011809885501861572,0.29644087028365046,1791554384791444242
0.11910402774810791,0.09351885318756104,0.2579095779111307,1791554384815216119
-0.1997801661491394,0.02427154779434204,0.29858572612617507,1791554384851524673
0.36322200298309326,-0.13176727294921875,0.2908721591536969,1791554384881518474
-0.2741395831108093,0.27551811933517456,0.27348698274265804,1791554384911583866
0.5172658562660217,-0.07088655233383179,0.2963230075904434,1791554384943064349
-0.6631419658660889,-0.028717458248138428,0.28176822598856316,1791554384974527527
-0.12044841051101685,0.11400973796844482,0.3248730140165107,1791554385011946561
-0.1071321964263916,0.013597428798675537,0.2529508494463203,1791554385041709824
0.0038983821868896484,-0.057270169258117676,0.28133991101392686,1791554385071763180
-0.05635106563568115,0.37815701961517334,0.3035696770083918,1791554385102677232
0.5525259375572205,-0.1869763731956482,0.3022437685815774,1791554385134953033
-0.4566959738731384,-0.19939804077148438,0.3204383649159946,1791554385161876272
0.2902013063430786,0.27835947275161743,0.2922748037592877,1791554385192296138
-0.2793204188346863,0.07873159646987915,0.2842636363702179,1791554385221973876
0.033647239208221436,-0.0418858528137207,0.2706601419947886,1791554385252044854
0.06066107749938965,-0.15190517902374268,0.3243602304324733,1791554385282027545
0.19868147373199463,0.25637269020080566,0.3098335704574257,1791554385312051406
0.02170705795288086,0.11822855472564697,0.278846247058864,1791554385342695838
-0.3080323338508606,-0.14212608337402344,0.2499821645225059,1791554385374576364
0.29168444871902466,0.0463634729385376,0.32471060851436884,1791554385402200471
-0.20121246576309204,-0.1578831672668457,0.3158177042015656,1791554385432235344
0.13381469249725342,0.13419276475906372,0.2967314764487076,1791554385462219124
0.12529093027114868,0.0796319842338562,0.2781904218761909,1791554385492271876
-0.05928516387939453,0.16831499338150024,0.25615543283558995,1791554385522392398
-0.019287586212158203,-0.08505374193191528,0.25889122570908624,1791554385552486114
-0.005376219749450684,0.11863243579864502,0.26619988319366916,1791554385583067724
-0.005611836910247803,0.02550262212753296,0.2900176760948217,1791554385614433113
-0.19604235887527466,0.11015051603317261,0.3073910362091763,1791554385642510005
0.13002938032150269,0.05455374717712402,0.27814639891924947,1791554385672522780
-0.337882399559021,-0.07269817590713501,0.28248729834730335,1791554385702491889
0.11704593896865845,0.2950124144554138,0.24420590297260583,1791554385725862231
-0.2080269455909729,-0.05646759271621704,0.3260392928092987,1791554385762570571
-0.004023730754852295,0.03735768795013428,0.2738465004259903,1791554385792635211
0.027537167072296143,0.13418889045715332,0.28989465715584406,1791554385822792207
-0.2154443860054016,-0.09929066896438599,0.2870968576015739,1791554385854465472
0.47752273082733154,-0.0635596513748169,0.3053073975789807,1791554385884975992
-0.26147520542144775,0.3286377787590027,0.2940270999520576,1791554385911865741
0.3176947832107544,-0.2468239665031433,0.2705901195397852,1791554385942771990
-0.3673674464225769,0.2534331679344177,0.2718870747151402,1791554385982805405
0.2286258339881897,-0.008816957473754883,0.2807171813972327,1791554386014838197
-0.42415374517440796,-0.022997677326202393,0.2717363439934165,1791554386045531450
0.46923792362213135,-0.20867854356765747,0.30015881509117903,1791554386073549722
-0.5018696784973145,0.5835400819778442,0.2995751304945914,1791554386102964459
0.26790904998779297,-0.16005414724349976,0.27620931859184017,1791554386143245745
-0.3517688512802124,-0.026655912399291992,0.25929240201704085,1791554386174681838
0.2739723324775696,0.11023545265197754,0.2558439676487055,1791554386206464377
0.03627359867095947,0.09255510568618774,0.3440235385770198,1791554386233175274
0.06773972511291504,0.0015794634819030762,0.26572668531299587,1791554386263713937
0.13025832176208496,-0.04640990495681763,0.29539413969716866,1791554386293211652
-0.2585291862487793,0.1783003807067871,0.2684700583061877,1791554386323211746
0.34204554557800293,0.1180533766746521,0.3035014330069702,1791554386353430388
-0.21734321117401123,0.04113304615020752,0.2807049545573894,1791554386383483428
0.5992737412452698,-0.22436505556106567,0.26681481902295306,1791554386415041272
0.12060999870300293,-0.061058640480041504,0.3131669504205201,1791554386473489291
-0.19058763980865479,0.11409103870391846,0.28247014839099444,1791554386503459603
-0.3016546964645386,-0.21850711107254028,0.25807556119593295,1791554386526478213
0.6801296472549438,-0.1286492943763733,0.36278908631858914,1791554386553602251
0.2224997878074646,0.1444408893585205,0.2877222945510293,1791554386593633343
-0.13246691226959229,-0.1649673581123352,0.2781582010816283,1791554386623509143
-0.057297706604003906,0.056769609451293945,0.26063759854202895,1791554386654689091
0.01267993450164795,0.16963040828704834,0.2523209423388902,1791554386686980964
-0.10460877418518066,0.050368547439575195,0.30672674826573815,1791554386713707342
0.24432510137557983,0.004010915756225586,0.2915125727022424,1791554386743720114
-0.10217738151550293,-0.08406269550323486,0.30351947238338584,1791554386773752079
0.13695365190505981,0.049319326877593994,0.2751972363804092,1791554386803774051
-0.26770150661468506,-0.03825908899307251,0.2936989294933927,1791554386833838991
-0.02492135763168335,0.16865664720535278,0.29969844508935345,1791554386863873697
0.3339614272117615,0.05362653732299805,0.2932613547268175,1791554386894609712
-0.22626638412475586,-0.13541734218597412,0.2645548997346678,1791554386926975545
0.22449618577957153,0.13212281465530396,0.29531856280716,1791554386954042351
-0.1537390947341919,-0.09271568059921265,0.2831558813129213,1791554386984010893
0.2809375524520874,0.10101616382598877,0.2867638013451027,1791554387014059954
-0.2191295623779297,-0.16878151893615723,0.3048197922276726,1791554387044093001
0.15801620483398438,0.36701077222824097,0.28932101656073433,1791554387074128879
-0.1164168119430542,-0.10013628005981445,0.28825978345268416,1791554387104405557
0.004101097583770752,0.2020130753517151,0.2328413519321975,1791554387134998030
-0.1599639654159546,-0.11333966255187988,0.22807668502658227,1791554387166529960
0.00979161262512207,0.017271876335144043,0.3049242871955304,1791554387194322233
0.16211223602294922,0.21109801530838013,0.33249186520538093,1791554387224285644
-0.1427714228630066,-0.03498798608779907,0.26051738810790437,1791554387247790151
-0.10072344541549683,0.10078102350234985,0.3105934377749155,1791554387274457865
0.005001485347747803,-0.09393531084060669,0.2763707139178638,1791554387304584214
0.01014012098312378,0.22941064834594727,0.27770080241811734,1791554387334406284
0.11206775903701782,0.05926316976547241,0.2902739570601879,1791554387364491979
-0.5338789224624634,-0.11625087261199951,0.2862589539836658,1791554387394474520
0.4157989025115967,-0.05180013179779053,0.2953576637856587,1791554387424541512
-0.25440508127212524,0.3684072494506836,0.28009587580935014,1791554387454675398
-0.03343081474304199,-0.10837006568908691,0.24075817561629145,1791554387486575285
-0.0771557092666626,-0.07491177320480347,0.2827964192521655,1791554387516719137
-0.3665812611579895,0.08313429355621338,0.2958449171409759,1791554387544660267
0.025962233543395996,0.13229155540466309,0.29488055763584464,1791554387584710075
0.3384011387825012,-0.09935832023620605,0.2539250746542362,1791554387624932397
-0.5853691101074219,0.06852114200592041,0.27577052530670987,1791554387654809352
0.5125755667686462,-0.030598104000091553,0.2637671906323773,1791554387684804861
-0.44413334131240845,-0.10767847299575806,0.2964330967455551,1791554387714862200
0.3782989978790283,0.4272545576095581,0.26720632456587523,1791554387744889626
-0.22634059190750122,-0.02206254005432129,0.29070780739061897,1791554387774924155
-0.02757316827774048,-0.019937753677368164,0.2605444302155089,1791554387807574481
0.22396302223205566,-0.07305186986923218,0.30275591249568273,1791554387837494647
-0.3737715482711792,-0.026324808597564697,0.28989485794733694,1791554387866197734
0.43842291831970215,0.33104372024536133,0.3132354692663939,1791554387895059866
-0.33690065145492554,-0.022869646549224854,0.2524680638282477,1791554387918131707
0.2088836431503296,-0.0709611177444458,0.30086439980394614,1791554387955173380
-0.23466235399246216,0.14553290605545044,0.29473479286841026,1791554387985164301
0.04978734254837036,-0.012007296085357666,0.28011867969758775,1791554388015378633
0.0994030237197876,-0.040369629859924316,0.26916709519286697,1791554388047191249
-0.4229542016983032,-0.04702693223953247,0.2629503003537889,1791554388079080923
0.528730571269989,0.09212827682495117,0.32009438389485995,1791554388105454160
-0.07164335250854492,0.05454254150390625,0.280113120198219,1791554388135516463
-0.0910751223564148,-0.07480502128601074,0.27626618181153834,1791554388165463902
-0.05689883232116699,0.026562631130218506,0.27484373947174945,1791554388195562995
0.15326446294784546,0.22887754440307617,0.27951872384493254,1791554388225730001
-0.07899147272109985,-0.10289764404296875,0.27967119306309474,1791554388255443197
-0.04376029968261719,0.07369756698608398,0.25326964977979727,1791554388286708986
-0.10432261228561401,-0.22651410102844238,0.2776650214833194,1791554388318587602
-0.012651503086090088,0.2704710364341736,0.30146656705765196,1791554388346001989
0.024596869945526123,0.14698868989944458,0.294342600183099,1791554388375640690
-0.2856023907661438,0.07500219345092773,0.27184371818654746,1791554388405647545
0.16238564252853394,-0.19079625606536865,0.264738913782382,1791554388435842041
-0.0044863224029541016,0.032390296459198,0.28391715885641083,1791554388465690067
-0.04149216413497925,0.13987255096435547,0.27043834899444497,1791554388495748356
-0.32884687185287476,-0.06378728151321411,0.26606688514557647,1791554388527053279
0.30678170919418335,-0.0584416389465332,0.2677091408691375,1791554388558784363
-0.20236152410507202,-0.03633606433868408,0.2957140857253603,1791554388585914050
-0.22658467292785645,0.23052173852920532,0.25475619330787347,1791554388615935208
0.13659042119979858,-0.015381097793579102,0.3051775352631395,1791554388644978492
-0.19034069776535034,0.013512670993804932,0.25730722757196567,1791554388686648447
0.05791902542114258,0.007491707801818848,0.23648337972844521,1791554388719322116
-0.36073482036590576,-0.08738136291503906,0.28552543508319134,1791554388746054794
0.3814030885696411,-0.020774006843566895,0.2930607502919311,1791554388776080651
-0.39975959062576294,0.4958544969558716,0.28527970579021006,1791554388806133281
0.19053423404693604,-0.12367433309555054,0.2768559170167045,1791554388836171225
-0.709749698638916,0.015913009643554688,0.263336107126989,1791554388866217149
0.4960850477218628,-0.10600501298904419,0.27429515427151535,1791554388896804258
-0.38118815422058105,0.19371002912521362,0.2961111784412081,1791554388927265946
0.4368550181388855,0.11395859718322754,0.2725602983954981,1791554388958809164
-0.03842848539352417,-0.13738596439361572,0.34592830067407215,1791554388986420875
-0.46135413646698,-0.16736817359924316,0.2786872553287172,1791554389016471484
0.2269337773323059,0.22590696811676025,0.2749806854122413,1791554389046405576
-0.40438318252563477,0.14969801902770996,0.21328457959987018,1791554389076452745
0.4943673610687256,-0.08514106273651123,0.253656475851139,1791554389107108669
-0.39549148082733154,-0.11097842454910278,0.2925250012477466,1791554389137317287
0.5881387591362,0.1008833646774292,0.29771481702770536,1791554389167255925
-0.5876495242118835,0.19187575578689575,0.27379092386678305,1791554389198757724
-0.18625307083129883,-0.06339192390441895,0.2836703383678928,1791554389247158967
-0.1800735592842102,-0.01619511842727661,0.25276568936748345,1791554389278594851
0.2996484041213989,0.06153517961502075,0.2681280034713405,1791554389310823430
-0.23634856939315796,0.026441335678100586,0.3122448814400828,1791554389347237123
0.0995740294456482,0.3087453246116638,0.23950872406286838,1791554389377727006
-0.29638928174972534,-0.11738520860671997,0.24442066836454232,1791554389407261922
0.5451631546020508,0.1394992470741272,0.28063191350565436,1791554389439063595
-0.34529078006744385,0.02060222625732422,0.30149359584109675,1791554389469202504
0.27475810050964355,0.08993417024612427,0.3004697158357854,1791554389497382541
-0.35194331407546997,-0.1898462176322937,0.2749966258176541,1791554389527659803
0.04313313961029053,0.16525298357009888,0.2834322288703151,1791554389556352902
0.04577910900115967,0.07110649347305298,0.25506929141871154,1791554389577463979
-0.20481055974960327,-0.02908802032470703,0.2528900275760578,1791554389617374710
0.07157045602798462,-0.07189488410949707,0.2941938177369643,1791554389646357245
-0.06170821189880371,0.2531771659851074,0.25315892841168935,1791554389679225684
0.11340481042861938,0.05908167362213135,0.2592912669467895,1791554389709971003
0.010197162628173828,-0.0439985990524292,0.289946808867425,1791554389737760831
0.17812281847000122,0.04486227035522461,0.27959952220129486,1791554389767476364
-0.198725163936615,0.01620107889175415,0.2647533029796289,1791554389797500197
0.2607894539833069,0.46936213970184326,0.24971840361295747,1791554389827517978
-0.22727644443511963,-0.2711182236671448,0.2624944905686047,1791554389857766519
0.06388509273529053,-0.005576193332672119,0.2750312406420594,1791554389887532315
0.2930222153663635,0.19774335622787476,0.2789910033165289,1791554389918693604
-0.38844943046569824,0.0374370813369751,0.25105174354296067,1791554389950917835
0.45107167959213257,-0.08263963460922241,0.32818432053054664,1791554389977662520
-0.4149094820022583,0.09050977230072021,0.28862706013484274,1791554390007565165
0.4335171580314636,0.064883291721344,0.2620123367581359,1791554390047597457
-0.6283450722694397,-0.1407700777053833,0.2505656471877609,1791554390078706920
0.3895341753959656,-0.04105722904205322,0.2758614590584392,1791554390110842973
-0.5439755916595459,0.22933590412139893,0.31739645763284013,1791554390137660163
0.361871600151062,0.12350887060165405,0.2739674318436586,1791554390167691571
-0.26410579681396484,-0.05700498819351196,0.26837572493983997,1791554390197757088
-0.04757428169250488,0.0971866250038147,0.25815015578854245,1791554390227776479
0.05391418933868408,0.1987919807434082,0.29535834534381017,1791554390257941816
-0.07072073221206665,-0.09064489603042603,0.2486822625358723,1791554390287834100
0.2431965470314026,-0.08266359567642212,0.25716557555874464,1791554390319691468
-0.12161356210708618,0.4086059331893921,0.22763560269952401,1791554390350675044
0.16823089122772217,-0.056978464126586914,0.30377769367666585,1791554390377980073
-0.3034842014312744,0.19681048393249512,0.2856668786569605,1791554390407959908
0.23175692558288574,-0.04305708408355713,0.26562541484153707,1791554390438046466
-0.45210498571395874,-0.07532459497451782,0.26924875885873156,1791554390468015098
0.4858788847923279,0.19877225160598755,0.27267844280051595,1791554390498060020
-0.16429460048675537,0.04951322078704834,0.2590373626309197,1791554390538223830
0.3610116243362427,0.10031747817993164,0.27819351200930104,1791554390568231934
-0.4445993900299072,0.08898305892944336,0.2875189136168502,1791554390598195874
0.14536261558532715,0.0008925795555114746,0.27004124916029304,1791554390628230726
-0.11846929788589478,-0.14956438541412354,0.2630938430892279,1791554390658286469
-0.017390131950378418,0.19959652423858643,0.24045011440481226,1791554390688773726
0.04633897542953491,0.05675947666168213,0.27510634274945445,1791554390718961836
0.022664427757263184,0.1412469744682312,0.25122804744226285,1791554390750730277
-0.16011810302734375,0.01114886999130249,0.2939878306497525,1791554390788568790
0.12960028648376465,0.21188604831695557,0.2569727482603116,1791554390818525589
-0.11766719818115234,-0.14077067375183105,0.2685975043208079,1791554390848571600
-0.0103798508644104,0.13207077980041504,0.25762127473789537,1791554390878800823
-0.05260634422302246,-0.035073935985565186,0.2686985519013894,1791554390910736372
-0.17777371406555176,0.17102187871932983,0.2937664640890151,1791554390938725899
-0.16471123695373535,0.02633225917816162,0.25995022989024286,1791554390969708335
-0.12306922674179077,-0.061389267444610596,0.2705639348121121,1791554390998658291
-0.01535344123840332,0.30542540550231934,0.259543576697023,1791554391028662621
0.02149444818496704,-0.14371716976165771,0.2891465468152747,1791554391058720697
-0.14404594898223877,0.2417982816696167,0.2856250519870085,1791554391088794277
0.03641313314437866,-0.13636964559555054,0.28383540552858133,1791554391118756450
-0.1961449384689331,0.22439897060394287,0.2345728240488166,1791554391151404025
0.2695810794830322,0.14766335487365723,0.25999776330208274,1791554391181268548
-0.10492956638336182,-0.1510729193687439,0.2954098154458294,1791554391218889511
0.40980082750320435,0.15404647588729858,0.28765094116684775,1791554391248912575
-0.4797862768173218,0.4604635238647461,0.271109404961589,1791554391279464265
0.2672887444496155,0.16362464427947998,0.25899909878660976,1791554391309867950
-0.485057532787323,-0.025905311107635498,0.21103233746349156,1791554391341620261
0.5948671698570251,0.14936167001724243,0.27592956878416086,1791554391369128899
-0.5812370181083679,0.13633078336715698,0.2748794696618499,1791554391399142443
0.32764923572540283,-0.015962183475494385,0.27405647997107807,1791554391429138718
-0.1446051001548767,-0.1542067527770996,0.2601918018567087,1791554391459259967
-0.11825639009475708,0.2507473826408386,0.24434683753040826,1791554391489232627
-0.02172607183456421,0.05791640281677246,0.2638986201049074,1791554391519277935
-0.2821492552757263,-0.02158379554748535,0.24725255208275163,1791554391550721524
0.5777028799057007,0.013580143451690674,0.2703307350287878,1791554391582710340
-0.5049781203269958,0.3416568636894226,0.2870253344270668,1791554391609461550
0.49633026123046875,-0.10575103759765625,0.2726726389755606,1791554391639405636
-0.522228479385376,-0.01833784580230713,0.27241991137031,1791554391669433852
0.25140488147735596,0.10805517435073853,0.26863580894455735,1791554391699482353
-0.024685442447662354,0.03047722578048706,0.2653023194592078,1791554391729674928
0.05636119842529297,-0.00737529993057251,0.2515171894924132,1791554391759534916
0.007270753383636475,0.0017810463905334473,0.25349166813270135,1791554391791156708
0.21254998445510864,0.1365445852279663,0.24791464704806812,1791554391822799117
0.02936697006225586,0.04932469129562378,0.29599035372100385,1791554391849720704
-0.1278643012046814,-0.11569154262542725,0.2536801632886107,1791554391879731233
0.3410900831222534,0.1432117223739624,0.2815672478074323,1791554391909702996
-0.509351909160614,0.14108818769454956,0.2510065664675604,1791554391939757312
0.37528055906295776,0.06016945838928223,0.25005011445299863,1791554391969778136
-0.20604252815246582,-0.04337650537490845,0.2606827904597654,1791554391999813114
0.1816832423210144,0.19573646783828735,0.25190493875164477,1791554392030997009
-0.22391891479492188,0.17547380924224854,0.2615043294063706,1791554392063129549
-0.26494354009628296,-0.2667922377586365,0.31228933761310235,1791554392089984116
0.12622898817062378,0.0032924413681030273,0.2748979872439702,1791554392119957284
-0.2710862159729004,0.34197765588760376,0.2581664282353202,1791554392149963524
0.10692071914672852,-0.025114059448242188,0.28051960589297076,1791554392180127588
-0.18047744035720825,0.11841821670532227,0.27975026050640783,1791554392210047364
0.02638876438140869,0.05759549140930176,0.2695945610488704,1791554392239105218
-0.2582477331161499,-0.10561418533325195,0.2237935534533336,1791554392270893665
0.06357920169830322,0.29818010330200195,0.22580256466261497,1791554392303431448
-0.21999108791351318,-0.21542394161224365,0.33395090420589435,1791554392329325849
0.0980939269065857,0.15006470680236816,0.2595633434195558,1791554392360617174
-0.11228048801422119,0.16173309087753296,0.2607065209878976,1791554392390264515
0.09856462478637695,-0.039582133293151855,0.2513024520616744,1791554392420308223
0.20828169584274292,-0.13468414545059204,0.26524333380873777,1791554392450584685
-0.27483952045440674,0.2698618769645691,0.2540383814670212,1791554392480376529
0.21092098951339722,0.04929935932159424,0.25870094108801545,1791554392511065577
-0.22039282321929932,-0.008547961711883545,0.24430009678115452,1791554392542904544
0.5471266508102417,0.05961596965789795,0.2994998865129616,1791554392570550394
-0.3663363456726074,0.19482046365737915,0.24904820146846385,1791554392600550345
0.3747473359107971,-0.14038705825805664,0.25639087443874864,1791554392630696746
-0.12881433963775635,-0.04466480016708374,0.2753819543547135,1791554392660592303
0.2815905213356018,0.34751105308532715,0.269298494160394,1791554392690613680
-0.2169615626335144,-0.11007493734359741,0.273877502899532,1791554392720623127
-0.2275378704071045,0.0336453914642334,0.24987121402617285,1791554392751435578
0.12681549787521362,0.11464136838912964,0.24008640411054785,1791554392782799729
-0.3459015488624573,0.1717720627784729,0.26485110121059263,1791554392810753426
-0.5980955362319946,0.02630031108856201,0.24566027657367118,1791554392862797119
0.1300453543663025,-0.1236567497253418,0.28242923387282326,1791554392900867551
-0.21655559539794922,0.12395638227462769,0.22544645505599137,1791554392943256560
0.5464748740196228,0.04328811168670654,0.2599528046356283,1791554392971030519
0.5637969374656677,0.15120965242385864,0.28153697154842583,1791554393030981509
-0.37563854455947876,0.035466909408569336,0.2682474317243628,1791554393061038845
0.23018276691436768,-0.02465885877609253,0.25108972644494393,1791554393091049634
-0.34964966773986816,0.09417843818664551,0.2654007982872119,1791554393121192967
0.2302638292312622,0.17697542905807495,0.27690674949219146,1791554393151195117
0.02088683843612671,0.11877202987670898,0.2568294853362519,1791554393183121998
-0.046272873878479004,-0.15812259912490845,0.2624246922496482,1791554393213517574
